AccX,AccY,AccZ,GyrX,GyrY,GyrZ,timestamp
-0.69,-0.11,9.80,-0.01,-0.01,-0.01,1720171271193
-0.52,-0.15,9.89,0.00,-0.02,-0.01,1720171271214
-0.52,-0.15,9.85,0.01,-0.02,-0.01,1720171271217
-0.50,-0.13,9.84,0.01,-0.02,-0.02,1720171271220
-0.50,-0.13,9.78,0.01,-0.02,-0.02,1720171271223
-0.49,-0.14,9.71,0.00,-0.02,-0.02,1720171271226
-0.50,-0.12,9.68,0.00,-0.02,-0.02,1720171271229
-0.48,-0.11,9.70,-0.00,-0.02,-0.02,1720171271232
-0.48,-0.14,9.70,-0.01,-0.02,-0.02,1720171271234
-0.49,-0.12,9.72,-0.01,-0.02,-0.02,1720171271237
-0.49,-0.11,9.72,-0.01,-0.02,-0.02,1720171271240
-0.47,-0.12,9.73,-0.01,-0.02,-0.02,1720171271243
-0.45,-0.12,9.80,-0.01,-0.02,-0.02,1720171271246
-0.45,-0.15,9.85,-0.01,-0.02,-0.02,1720171271249
-0.44,-0.16,9.86,-0.01,-0.02,-0.02,1720171271252
-0.47,-0.17,9.87,-0.01,-0.02,-0.02,1720171271255
-0.48,-0.19,9.92,-0.01,-0.02,-0.02,1720171271258
-0.44,-0.21,9.95,-0.01,-0.02,-0.02,1720171271261
-0.42,-0.23,9.94,-0.00,-0.02,-0.01,1720171271264
-0.42,-0.24,9.90,-0.00,-0.02,-0.01,1720171271266
-0.38,-0.23,9.87,0.00,-0.02,-0.01,1720171271269
-0.34,-0.20,9.85,0.00,-0.02,-0.01,1720171271272
-0.31,-0.16,9.84,0.00,-0.02,-0.01,1720171271275
-0.28,-0.13,9.81,0.00,-0.02,-0.01,1720171271278
-0.27,-0.14,9.79,0.00,-0.01,-0.01,1720171271281
-0.25,-0.13,9.72,0.00,-0.01,-0.01,1720171271284
-0.22,-0.12,9.71,-0.00,-0.01,-0.01,1720171271287
-0.19,-0.15,9.75,-0.01,-0.01,-0.02,1720171271290
-0.18,-0.15,9.74,-0.01,-0.01,-0.02,1720171271293
-0.16,-0.13,9.76,-0.01,-0.01,-0.02,1720171271295
-0.19,-0.15,9.81,-0.01,-0.01,-0.03,1720171271298
-0.20,-0.17,9.82,-0.01,-0.01,-0.03,1720171271301
-0.20,-0.20,9.89,-0.01,-0.01,-0.03,1720171271304
-0.21,-0.21,9.92,-0.01,-0.01,-0.04,1720171271307
-0.22,-0.21,9.95,-0.01,-0.00,-0.04,1720171271310
-0.23,-0.20,9.98,-0.01,-0.00,-0.04,1720171271313
-0.24,-0.19,9.98,-0.00,-0.00,-0.04,1720171271316
-0.26,-0.16,9.91,-0.00,-0.00,-0.04,1720171271319
-0.26,-0.14,9.85,0.00,-0.00,-0.04,1720171271322
-0.30,-0.11,9.83,0.00,-0.00,-0.05,1720171271325
-0.36,-0.10,9.74,0.00,-0.00,-0.05,1720171271327
-0.39,-0.10,9.69,0.00,-0.01,-0.05,1720171271330
-0.41,-0.09,9.67,0.00,-0.01,-0.05,1720171271333
-0.43,-0.09,9.65,-0.00,-0.01,-0.05,1720171271336
-0.45,-0.09,9.65,-0.01,-0.00,-0.06,1720171271339
-0.49,-0.09,9.67,-0.01,-0.00,-0.06,1720171271342
-0.54,-0.11,9.70,-0.02,-0.00,-0.06,1720171271345
-0.57,-0.11,9.79,-0.02,-0.00,-0.05,1720171271348
-0.60,-0.09,9.82,-0.02,-0.00,-0.05,1720171271351
-0.63,-0.12,9.87,-0.02,-0.00,-0.05,1720171271354
-0.62,-0.12,9.91,-0.02,-0.00,-0.05,1720171271357
-0.64,-0.14,9.94,-0.01,-0.00,-0.04,1720171271359
-0.66,-0.12,9.97,-0.01,-0.00,-0.04,1720171271362
-0.67,-0.12,9.96,-0.00,-0.00,-0.04,1720171271365
-0.68,-0.12,9.93,0.00,-0.01,-0.03,1720171271368
-0.68,-0.14,9.90,0.01,-0.01,-0.03,1720171271371
-0.68,-0.15,9.84,0.01,-0.01,-0.03,1720171271374
-0.68,-0.12,9.77,0.01,-0.01,-0.02,1720171271377
-0.65,-0.11,9.73,0.01,-0.01,-0.02,1720171271380
-0.63,-0.11,9.71,0.01,-0.01,-0.02,1720171271383
-0.63,-0.12,9.65,0.00,-0.01,-0.01,1720171271386
-0.61,-0.09,9.63,-0.00,-0.01,-0.01,1720171271389
-0.60,-0.08,9.60,-0.01,-0.01,-0.01,1720171271391
-0.56,-0.07,9.62,-0.01,-0.01,-0.00,1720171271394
-0.49,-0.06,9.65,-0.01,-0.01,-0.00,1720171271397
-0.46,-0.08,9.73,-0.01,-0.01,-0.01,1720171271400
-0.45,-0.09,9.76,-0.01,-0.01,-0.00,1720171271403
-0.41,-0.11,9.81,-0.01,-0.01,-0.00,1720171271406
-0.37,-0.12,9.86,-0.01,-0.01,-0.00,1720171271409
-0.35,-0.12,9.91,-0.01,-0.01,-0.00,1720171271412
-0.34,-0.15,9.93,-0.01,-0.01,-0.00,1720171271415
-0.33,-0.16,9.97,-0.01,-0.01,-0.00,1720171271418
-0.32,-0.16,9.95,-0.00,-0.01,-0.01,1720171271421
-0.29,-0.14,9.94,-0.00,-0.01,-0.01,1720171271423
-0.28,-0.14,9.87,-0.00,-0.01,-0.01,1720171271426
-0.29,-0.13,9.83,0.00,-0.01,-0.02,1720171271429
-0.26,-0.11,9.81,0.00,-0.01,-0.02,1720171271432
-0.25,-0.10,9.83,0.00,-0.01,-0.03,1720171271435
-0.27,-0.10,9.83,-0.00,-0.01,-0.03,1720171271438
-0.31,-0.08,9.83,-0.00,-0.01,-0.04,1720171271441
-0.32,-0.10,9.79,-0.00,-0.01,-0.04,1720171271444
-0.34,-0.11,9.77,-0.00,-0.01,-0.04,1720171271447
-0.35,-0.11,9.75,-0.00,-0.00,-0.05,1720171271450
-0.40,-0.12,9.70,-0.00,-0.00,-0.05,1720171271453
-0.44,-0.13,9.69,-0.00,-0.00,-0.05,1720171271455
-0.46,-0.14,9.71,-0.01,-0.00,-0.06,1720171271458
-0.48,-0.14,9.70,-0.01,-0.01,-0.06,1720171271461
-0.50,-0.15,9.70,-0.01,-0.01,-0.06,1720171271464
-0.57,-0.17,9.71,-0.01,-0.01,-0.06,1720171271467
-0.65,-0.18,9.71,-0.01,-0.01,-0.06,1720171271470
-0.70,-0.19,9.72,-0.01,-0.01,-0.06,1720171271473
-0.73,-0.22,9.75,-0.01,-0.01,-0.05,1720171271476
-0.75,-0.21,9.79,-0.01,-0.01,-0.05,1720171271479
-0.75,-0.22,9.79,-0.01,-0.01,-0.04,1720171271482
-0.77,-0.23,9.83,-0.01,-0.01,-0.04,1720171271485
-0.77,-0.21,9.87,-0.01,-0.01,-0.03,1720171271487
-0.77,-0.20,9.84,-0.01,-0.01,-0.03,1720171271490
-0.77,-0.20,9.84,-0.01,-0.01,-0.02,1720171271493
-0.75,-0.20,9.89,-0.01,-0.01,-0.02,1720171271496
-0.73,-0.21,9.90,-0.00,-0.02,-0.01,1720171271499
-0.71,-0.19,9.85,-0.00,-0.02,-0.00,1720171271502
-0.68,-0.19,9.84,-0.00,-0.02,-0.00,1720171271505
-0.61,-0.19,9.80,-0.00,-0.02,0.00,1720171271508
-0.57,-0.20,9.76,-0.00,-0.02,0.01,1720171271511
-0.50,-0.21,9.73,-0.00,-0.02,0.01,1720171271514
-0.45,-0.21,9.70,-0.00,-0.02,0.01,1720171271517
-0.39,-0.19,9.73,-0.01,-0.02,0.01,1720171271519
-0.39,-0.16,9.78,-0.01,-0.02,0.01,1720171271522
-0.29,-0.12,9.81,-0.01,-0.02,0.01,1720171271525
-0.24,-0.14,9.84,-0.01,-0.02,0.01,1720171271528
-0.20,-0.15,9.83,-0.01,-0.02,0.01,1720171271531
-0.18,-0.14,9.87,-0.01,-0.02,-0.00,1720171271534
-0.14,-0.13,9.86,-0.01,-0.02,-0.00,1720171271537
-0.12,-0.10,9.90,-0.01,-0.02,-0.01,1720171271540
-0.10,-0.11,9.87,-0.00,-0.02,-0.01,1720171271543
-0.09,-0.12,9.85,-0.00,-0.01,-0.02,1720171271546
-0.10,-0.11,9.78,0.00,-0.01,-0.02,1720171271548
-0.13,-0.07,9.76,0.00,-0.01,-0.03,1720171271551
-0.11,-0.08,9.73,0.00,-0.01,-0.04,1720171271554
-0.15,-0.10,9.70,-0.00,-0.01,-0.04,1720171271557
-0.18,-0.11,9.65,-0.00,-0.01,-0.05,1720171271560
-0.23,-0.13,9.67,-0.01,-0.01,-0.05,1720171271563
-0.26,-0.15,9.68,-0.01,-0.01,-0.05,1720171271566
-0.32,-0.17,9.76,-0.01,-0.00,-0.06,1720171271569
-0.37,-0.19,9.84,-0.02,-0.00,-0.06,1720171271572
-0.42,-0.21,9.88,-0.02,-0.00,-0.05,1720171271575
-0.45,-0.22,9.92,-0.02,-0.00,-0.05,1720171271578
-0.47,-0.22,9.94,-0.02,-0.00,-0.05,1720171271580
-0.48,-0.21,9.97,-0.01,-0.00,-0.04,1720171271583
-0.49,-0.22,9.97,-0.01,-0.00,-0.04,1720171271586
-0.52,-0.19,9.95,-0.00,-0.00,-0.03,1720171271589
-0.49,-0.21,9.93,0.00,-0.00,-0.03,1720171271592
-0.51,-0.19,9.87,0.00,-0.00,-0.02,1720171271595
-0.51,-0.17,9.83,0.01,-0.00,-0.02,1720171271598
-0.45,-0.17,9.78,0.01,-0.00,-0.01,1720171271601
-0.42,-0.15,9.70,0.00,-0.00,-0.01,1720171271604
-0.40,-0.12,9.69,0.00,-0.00,-0.01,1720171271607
-0.38,-0.12,9.67,-0.00,-0.00,-0.01,1720171271610
-0.35,-0.12,9.67,-0.01,-0.00,-0.01,1720171271612
-0.31,-0.12,9.70,-0.01,-0.00,-0.01,1720171271615
-0.29,-0.10,9.73,-0.01,-0.00,-0.01,1720171271618
-0.26,-0.09,9.77,-0.01,-0.00,-0.02,1720171271621
-0.25,-0.06,9.80,-0.01,-0.00,-0.02,1720171271624
-0.24,-0.07,9.85,-0.01,-0.00,-0.03,1720171271627
-0.26,-0.10,9.89,-0.01,-0.00,-0.03,1720171271630
-0.29,-0.09,9.88,-0.01,-0.00,-0.04,1720171271633
-0.29,-0.10,9.87,-0.01,-0.00,-0.04,1720171271636
-0.34,-0.10,9.88,-0.01,-0.00,-0.05,1720171271639
-0.37,-0.13,9.90,-0.00,0.00,-0.05,1720171271642
-0.36,-0.15,9.84,-0.00,0.00,-0.05,1720171271644
-0.36,-0.14,9.82,-0.00,0.00,-0.05,1720171271647
-0.40,-0.13,9.86,-0.01,0.00,-0.05,1720171271650
-0.42,-0.13,9.86,-0.00,0.00,-0.05,1720171271653
-0.45,-0.14,9.85,-0.00,0.00,-0.04,1720171271656
-0.48,-0.11,9.85,-0.00,0.00,-0.04,1720171271659
-0.50,-0.12,9.91,-0.00,0.00,-0.04,1720171271662
-0.51,-0.12,9.91,-0.00,0.00,-0.04,1720171271665
-0.54,-0.09,9.86,-0.00,0.00,-0.03,1720171271668
-0.53,-0.11,9.79,0.00,0.00,-0.03,1720171271671
-0.51,-0.10,9.81,-0.00,0.00,-0.03,1720171271674
-0.52,-0.10,9.79,-0.00,0.00,-0.03,1720171271676
-0.51,-0.11,9.74,-0.00,0.00,-0.02,1720171271679
-0.52,-0.15,9.71,-0.00,-0.00,-0.02,1720171271682
-0.50,-0.18,9.70,-0.01,-0.00,-0.02,1720171271685
-0.47,-0.19,9.71,-0.01,0.00,-0.01,1720171271688
-0.45,-0.16,9.73,-0.01,-0.00,-0.01,1720171271691
-0.41,-0.15,9.75,-0.01,0.00,-0.01,1720171271694
-0.38,-0.14,9.80,-0.01,0.00,-0.01,1720171271697
-0.32,-0.15,9.82,-0.01,0.00,-0.01,1720171271700
-0.31,-0.15,9.88,-0.01,0.00,-0.01,1720171271703
-0.28,-0.14,9.89,-0.01,0.00,-0.01,1720171271705
-0.26,-0.14,9.91,-0.01,0.00,-0.01,1720171271708
-0.25,-0.15,9.89,-0.00,0.00,-0.01,1720171271711
-0.22,-0.17,9.90,-0.00,0.00,-0.02,1720171271714
-0.21,-0.16,9.93,-0.00,0.01,-0.02,1720171271717
-0.19,-0.15,9.89,0.00,0.01,-0.03,1720171271720
-0.19,-0.15,9.88,0.00,0.01,-0.03,1720171271723
-0.18,-0.15,9.88,0.00,0.01,-0.03,1720171271726
-0.18,-0.16,9.83,0.00,0.01,-0.04,1720171271729
-0.20,-0.15,9.76,-0.00,0.01,-0.04,1720171271732
-0.23,-0.15,9.75,-0.00,0.01,-0.04,1720171271735
-0.26,-0.18,9.77,-0.00,0.01,-0.05,1720171271737
-0.27,-0.19,9.76,-0.00,0.01,-0.05,1720171271740
-0.30,-0.22,9.78,-0.00,0.01,-0.05,1720171271743
-0.33,-0.22,9.76,-0.01,0.01,-0.05,1720171271746
-0.34,-0.22,9.79,-0.00,0.01,-0.05,1720171271749
-0.39,-0.21,9.78,-0.00,0.01,-0.06,1720171271752
-0.41,-0.23,9.81,-0.00,0.01,-0.06,1720171271755
-0.42,-0.24,9.79,-0.00,0.01,-0.05,1720171271758
-0.45,-0.25,9.74,-0.00,0.01,-0.05,1720171271761
-0.47,-0.28,9.70,-0.00,0.01,-0.05,1720171271764
-0.46,-0.27,9.70,-0.00,0.01,-0.05,1720171271767
-0.49,-0.28,9.70,-0.00,0.01,-0.05,1720171271769
-0.51,-0.27,9.65,-0.00,0.01,-0.05,1720171271772
-0.53,-0.26,9.66,-0.00,0.01,-0.05,1720171271775
-0.54,-0.26,9.65,-0.01,0.01,-0.05,1720171271778
-0.55,-0.26,9.66,-0.01,0.01,-0.05,1720171271781
-0.57,-0.23,9.70,-0.01,0.01,-0.05,1720171271784
-0.59,-0.23,9.76,-0.01,0.01,-0.05,1720171271787
-0.61,-0.22,9.79,-0.01,0.01,-0.05,1720171271790
-0.63,-0.21,9.78,-0.01,0.01,-0.05,1720171271793
-0.66,-0.21,9.84,-0.01,0.01,-0.05,1720171271796
-0.68,-0.21,9.84,-0.01,0.01,-0.04,1720171271799
-0.68,-0.23,9.87,-0.01,0.01,-0.04,1720171271801
-0.68,-0.24,9.90,-0.01,0.01,-0.04,1720171271804
-0.69,-0.25,9.90,-0.01,0.01,-0.03,1720171271807
-0.68,-0.30,9.89,-0.01,0.01,-0.03,1720171271810
-0.66,-0.32,9.89,-0.01,0.01,-0.02,1720171271813
-0.67,-0.31,9.86,-0.01,0.01,-0.02,1720171271816
-0.67,-0.28,9.84,-0.00,0.00,-0.01,1720171271819
-0.64,-0.25,9.81,-0.00,0.00,-0.01,1720171271822
-0.64,-0.20,9.83,-0.00,0.00,-0.00,1720171271825
-0.61,-0.19,9.80,0.00,0.00,0.00,1720171271828
-0.55,-0.20,9.75,0.00,-0.00,0.00,1720171271830
-0.52,-0.18,9.76,0.00,-0.00,0.01,1720171271833
-0.49,-0.14,9.75,-0.00,-0.00,0.01,1720171271836
-0.46,-0.14,9.76,-0.00,-0.00,0.01,1720171271839
-0.41,-0.12,9.76,-0.00,0.00,0.01,1720171271842
-0.35,-0.12,9.73,-0.01,0.00,0.01,1720171271845
-0.30,-0.11,9.74,-0.01,0.00,0.01,1720171271848
-0.27,-0.12,9.73,-0.01,-0.00,0.01,1720171271851
-0.24,-0.11,9.73,-0.01,0.00,0.01,1720171271854
-0.22,-0.12,9.76,-0.01,0.00,0.00,1720171271857
-0.18,-0.10,9.70,-0.01,0.00,-0.00,1720171271860
-0.14,-0.09,9.71,-0.01,0.00,-0.01,1720171271863
-0.14,-0.06,9.69,-0.01,0.00,-0.01,1720171271866
-0.16,-0.03,9.70,-0.01,0.00,-0.02,1720171271869
-0.14,-0.04,9.74,-0.01,0.00,-0.03,1720171271871
-0.15,-0.07,9.73,-0.01,0.01,-0.03,1720171271874
-0.15,-0.08,9.73,-0.01,0.01,-0.03,1720171271877
-0.15,-0.09,9.74,-0.01,0.01,-0.04,1720171271880
-0.19,-0.06,9.78,-0.01,0.01,-0.04,1720171271883
-0.23,-0.09,9.84,-0.01,0.01,-0.04,1720171271886
-0.25,-0.10,9.86,-0.01,0.01,-0.04,1720171271889
-0.26,-0.13,9.85,-0.01,0.01,-0.04,1720171271892
-0.28,-0.15,9.90,-0.01,0.01,-0.04,1720171271895
-0.30,-0.16,9.91,-0.01,0.01,-0.04,1720171271898
-0.34,-0.17,9.89,-0.01,0.01,-0.03,1720171271901
-0.36,-0.17,9.87,-0.00,0.01,-0.02,1720171271903
-0.32,-0.16,9.89,-0.00,0.01,-0.02,1720171271906
-0.27,-0.12,9.88,-0.00,0.02,-0.01,1720171271909
-0.24,-0.11,9.88,-0.00,0.02,-0.01,1720171271912
-0.23,-0.11,9.86,-0.00,0.02,-0.00,1720171271915
-0.20,-0.10,9.84,-0.01,0.02,-0.00,1720171271918
-0.17,-0.10,9.91,-0.00,0.02,0.00,1720171271921
-0.14,-0.10,9.89,-0.01,0.02,0.00,1720171271924
-0.11,-0.11,9.90,-0.01,0.02,0.00,1720171271927
-0.07,-0.08,9.90,-0.01,0.02,0.00,1720171271930
-0.05,-0.08,9.89,-0.00,0.02,-0.00,1720171271933
-0.05,-0.07,9.87,-0.00,0.02,-0.00,1720171271935
-0.08,-0.07,9.83,-0.00,0.02,-0.01,1720171271938
-0.03,-0.08,9.84,-0.00,0.03,-0.01,1720171271941
-0.05,-0.09,9.86,-0.00,0.03,-0.02,1720171271944
-0.03,-0.10,9.86,-0.00,0.03,-0.02,1720171271947
-0.06,-0.09,9.84,-0.00,0.03,-0.03,1720171271950
-0.10,-0.08,9.84,-0.00,0.03,-0.03,1720171271953
-0.14,-0.06,9.79,-0.00,0.03,-0.04,1720171271956
-0.17,-0.06,9.75,-0.00,0.03,-0.05,1720171271959
-0.21,-0.04,9.76,-0.00,0.03,-0.05,1720171271962
-0.27,-0.03,9.80,-0.01,0.04,-0.06,1720171271965
-0.33,-0.04,9.84,-0.01,0.04,-0.06,1720171271967
-0.40,-0.04,9.79,-0.01,0.04,-0.06,1720171271970
-0.47,-0.04,9.78,-0.01,0.04,-0.07,1720171271973
-0.53,-0.02,9.82,-0.01,0.04,-0.07,1720171271976
-0.57,-0.03,9.85,-0.01,0.04,-0.07,1720171271979
-0.62,-0.05,9.88,-0.01,0.03,-0.07,1720171271982
-0.70,-0.06,9.90,-0.01,0.03,-0.07,1720171271985
-0.77,-0.08,9.88,-0.01,0.03,-0.07,1720171271988
-0.81,-0.07,9.89,-0.00,0.03,-0.07,1720171271991
-0.86,-0.04,9.88,-0.00,0.03,-0.07,1720171271994
-0.91,-0.05,9.85,-0.00,0.03,-0.07,1720171271996
-0.96,-0.05,9.82,-0.00,0.03,-0.07,1720171271999
-1.01,-0.04,9.75,-0.00,0.02,-0.06,1720171272002
-1.06,-0.03,9.71,0.00,0.02,-0.06,1720171272005
-1.10,-0.02,9.65,0.00,0.02,-0.06,1720171272008
-1.10,-0.03,9.62,0.00,0.02,-0.05,1720171272011
-1.14,-0.01,9.58,0.00,0.02,-0.05,1720171272014
-1.15,-0.00,9.55,0.00,0.01,-0.05,1720171272017
-1.15,0.00,9.53,-0.00,0.01,-0.04,1720171272020
-1.18,-0.00,9.44,-0.00,0.01,-0.04,1720171272023
-1.19,0.00,9.42,-0.00,0.00,-0.03,1720171272026
-1.20,-0.01,9.42,-0.01,0.00,-0.03,1720171272028
-1.21,-0.03,9.47,-0.01,0.00,-0.02,1720171272031
-1.23,-0.02,9.49,-0.02,-0.00,-0.02,1720171272034
-1.22,0.00,9.58,-0.02,-0.00,-0.01,1720171272037
-1.21,-0.01,9.63,-0.02,-0.00,-0.00,1720171272040
-1.21,-0.04,9.69,-0.03,-0.01,0.00,1720171272043
-1.18,-0.05,9.79,-0.03,-0.01,0.01,1720171272046
-1.16,-0.06,9.93,-0.03,-0.01,0.02,1720171272049
-1.09,-0.07,10.03,-0.03,-0.01,0.03,1720171272052
-1.03,-0.08,10.07,-0.02,-0.01,0.04,1720171272055
-0.99,-0.10,10.11,-0.02,-0.01,0.05,1720171272058
-0.89,-0.11,10.16,-0.01,-0.02,0.06,1720171272060
-0.79,-0.10,10.16,-0.01,-0.02,0.06,1720171272063
-0.71,-0.10,10.11,0.00,-0.02,0.07,1720171272066
-0.60,-0.07,10.05,0.01,-0.02,0.07,1720171272069
-0.47,-0.08,9.95,0.01,-0.02,0.07,1720171272072
-0.34,-0.04,9.85,0.01,-0.02,0.07,1720171272075
-0.28,-0.03,9.82,0.01,-0.02,0.07,1720171272078
-0.22,-0.01,9.73,0.01,-0.02,0.07,1720171272081
-0.13,0.02,9.67,0.01,-0.02,0.07,1720171272084
-0.05,0.04,9.67,0.01,-0.02,0.06,1720171272087
0.02,0.06,9.62,0.00,-0.01,0.05,1720171272090
0.09,0.06,9.59,-0.00,-0.01,0.04,1720171272092
0.14,0.06,9.61,-0.01,-0.01,0.03,1720171272095
0.18,0.04,9.63,-0.01,-0.01,0.02,1720171272098
0.22,0.04,9.65,-0.02,-0.01,0.01,1720171272101
0.21,-0.01,9.71,-0.02,-0.00,-0.00,1720171272104
0.19,-0.06,9.77,-0.02,-0.00,-0.01,1720171272107
0.18,-0.08,9.83,-0.02,0.00,-0.02,1720171272110
0.15,-0.08,9.91,-0.01,0.00,-0.03,1720171272113
0.14,-0.08,9.89,-0.01,0.00,-0.04,1720171272116
0.10,-0.09,9.93,-0.01,0.01,-0.05,1720171272119
0.04,-0.12,9.95,-0.01,0.01,-0.05,1720171272122
-0.02,-0.12,9.95,-0.01,0.01,-0.06,1720171272124
-0.10,-0.14,9.97,-0.01,0.01,-0.06,1720171272127
-0.15,-0.16,9.96,-0.00,0.01,-0.06,1720171272130
-0.20,-0.14,9.92,-0.00,0.02,-0.06,1720171272133
-0.24,-0.17,9.91,-0.00,0.02,-0.06,1720171272136
-0.30,-0.19,9.87,-0.00,0.02,-0.06,1720171272139
-0.34,-0.20,9.88,-0.00,0.02,-0.06,1720171272142
-0.39,-0.21,9.83,-0.00,0.02,-0.06,1720171272145
-0.39,-0.22,9.84,-0.00,0.02,-0.05,1720171272148
-0.44,-0.22,9.82,-0.00,0.02,-0.05,1720171272151
-0.47,-0.20,9.77,-0.00,0.02,-0.04,1720171272153
-0.49,-0.20,9.74,-0.00,0.02,-0.04,1720171272156
-0.48,-0.16,9.71,-0.00,0.02,-0.03,1720171272159
-0.48,-0.15,9.70,-0.00,0.02,-0.03,1720171272162
-0.48,-0.14,9.65,-0.01,0.02,-0.02,1720171272165
-0.48,-0.13,9.68,-0.01,0.02,-0.02,1720171272168
-0.46,-0.14,9.72,-0.01,0.02,-0.02,1720171272171
-0.46,-0.15,9.77,-0.01,0.02,-0.01,1720171272174
-0.44,-0.16,9.81,-0.02,0.02,-0.01,1720171272177
-0.41,-0.16,9.84,-0.02,0.02,-0.01,1720171272180
-0.40,-0.20,9.90,-0.02,0.02,-0.01,1720171272183
-0.36,-0.21,9.96,-0.02,0.02,-0.01,1720171272185
-0.32,-0.25,10.00,-0.02,0.02,-0.01,1720171272188
-0.26,-0.26,10.07,-0.01,0.02,-0.01,1720171272191
-0.24,-0.25,10.03,-0.01,0.02,-0.01,1720171272194
-0.22,-0.25,10.00,-0.00,0.03,-0.01,1720171272197
-0.22,-0.23,9.95,0.00,0.03,-0.02,1720171272200
-0.18,-0.20,9.88,0.01,0.03,-0.02,1720171272203
-0.13,-0.19,9.83,0.01,0.03,-0.03,1720171272206
-0.11,-0.16,9.74,0.01,0.03,-0.03,1720171272209
-0.13,-0.13,9.66,0.01,0.03,-0.04,1720171272212
-0.11,-0.09,9.62,0.01,0.03,-0.05,1720171272215
-0.10,-0.10,9.61,0.00,0.03,-0.05,1720171272217
-0.13,-0.11,9.62,-0.00,0.03,-0.06,1720171272220
-0.15,-0.11,9.68,-0.01,0.03,-0.07,1720171272223
-0.19,-0.11,9.68,-0.01,0.03,-0.08,1720171272226
-0.24,-0.14,9.69,-0.02,0.04,-0.08,1720171272229
-0.33,-0.17,9.77,-0.02,0.04,-0.09,1720171272232
-0.40,-0.20,9.83,-0.02,0.04,-0.09,1720171272235
-0.45,-0.22,9.84,-0.02,0.04,-0.09,1720171272238
-0.47,-0.23,9.89,-0.02,0.04,-0.10,1720171272241
-0.56,-0.23,9.95,-0.02,0.04,-0.10,1720171272244
-0.64,-0.23,9.97,-0.01,0.04,-0.10,1720171272247
-0.71,-0.24,9.98,-0.01,0.03,-0.10,1720171272249
-0.80,-0.22,9.99,-0.00,0.03,-0.10,1720171272252
-0.85,-0.20,9.93,0.00,0.03,-0.09,1720171272255
-0.90,-0.18,9.86,0.00,0.03,-0.09,1720171272258
-0.95,-0.19,9.82,0.00,0.03,-0.09,1720171272261
-1.00,-0.20,9.79,0.00,0.03,-0.08,1720171272264
-1.05,-0.21,9.74,0.00,0.03,-0.08,1720171272267
-1.07,-0.22,9.67,0.00,0.03,-0.07,1720171272270
-1.09,-0.24,9.65,0.00,0.03,-0.07,1720171272273
-1.11,-0.24,9.63,-0.00,0.03,-0.06,1720171272276
-1.13,-0.24,9.60,-0.01,0.03,-0.05,1720171272279
-1.16,-0.23,9.62,-0.01,0.02,-0.05,1720171272281
-1.16,-0.23,9.68,-0.01,0.02,-0.04,1720171272284
-1.17,-0.22,9.73,-0.01,0.02,-0.03,1720171272287
-1.16,-0.21,9.76,-0.01,0.02,-0.02,1720171272290
-1.11,-0.22,9.82,-0.01,0.02,-0.02,1720171272293
-1.09,-0.19,9.90,-0.01,0.01,-0.01,1720171272296
-1.02,-0.17,9.96,-0.01,0.01,-0.00,1720171272299
-0.95,-0.15,9.94,-0.01,0.01,0.00,1720171272302
-0.92,-0.16,9.93,-0.01,0.01,0.01,1720171272305
-0.84,-0.15,9.92,-0.00,0.00,0.01,1720171272308
-0.76,-0.14,9.89,0.00,0.00,0.01,1720171272311
-0.68,-0.13,9.81,0.00,0.00,0.01,1720171272313
-0.60,-0.16,9.77,0.00,0.00,0.01,1720171272316
-0.57,-0.14,9.73,0.00,0.00,0.01,1720171272319
-0.52,-0.13,9.67,0.00,0.00,0.00,1720171272322
-0.46,-0.10,9.64,-0.00,-0.00,-0.00,1720171272325
-0.44,-0.06,9.69,-0.01,-0.00,-0.01,1720171272328
-0.42,-0.05,9.73,-0.01,0.00,-0.02,1720171272331
-0.38,-0.06,9.71,-0.01,0.00,-0.02,1720171272334
-0.37,-0.05,9.72,-0.01,0.00,-0.03,1720171272337
-0.38,-0.06,9.78,-0.01,0.00,-0.04,1720171272340
-0.38,-0.05,9.84,-0.01,0.00,-0.04,1720171272342
-0.42,-0.05,9.89,-0.01,0.00,-0.05,1720171272345
-0.46,-0.04,9.90,-0.01,0.00,-0.06,1720171272348
-0.53,-0.03,9.90,-0.01,0.00,-0.07,1720171272351
-0.60,-0.05,9.88,-0.01,0.00,-0.07,1720171272354
-0.69,-0.07,9.85,-0.00,-0.00,-0.07,1720171272357
-0.76,-0.07,9.83,-0.00,-0.00,-0.08,1720171272360
-0.81,-0.09,9.81,-0.00,-0.00,-0.08,1720171272363
-0.89,-0.11,9.82,-0.00,-0.00,-0.07,1720171272366
-0.96,-0.14,9.81,-0.00,-0.00,-0.07,1720171272369
-1.00,-0.16,9.79,-0.01,-0.00,-0.07,1720171272372
-1.04,-0.17,9.81,-0.01,-0.01,-0.06,1720171272375
-1.07,-0.19,9.84,-0.01,-0.01,-0.05,1720171272377
-1.08,-0.18,9.86,-0.01,-0.01,-0.04,1720171272380
-1.09,-0.15,9.87,-0.01,-0.01,-0.02,1720171272383
-1.08,-0.15,9.89,-0.01,-0.01,-0.01,1720171272386
-1.04,-0.15,9.87,-0.01,-0.01,-0.00,1720171272389
-1.00,-0.15,9.88,-0.00,-0.01,0.01,1720171272392
-0.95,-0.14,9.86,-0.00,-0.01,0.02,1720171272395
-0.86,-0.09,9.84,0.00,-0.01,0.02,1720171272398
-0.79,-0.10,9.79,0.00,-0.02,0.03,1720171272401
-0.76,-0.09,9.78,0.00,-0.02,0.03,1720171272404
-0.69,-0.10,9.72,0.00,-0.02,0.03,1720171272406
-0.62,-0.08,9.70,0.00,-0.02,0.03,1720171272409
-0.58,-0.06,9.68,-0.00,-0.02,0.03,1720171272412
-0.51,-0.06,9.70,-0.00,-0.02,0.03,1720171272415
-0.45,-0.07,9.73,-0.01,-0.02,0.02,1720171272418
-0.39,-0.05,9.74,-0.01,-0.02,0.02,1720171272421
-0.36,-0.03,9.78,-0.01,-0.02,0.01,1720171272424
-0.36,-0.03,9.88,-0.01,-0.02,0.01,1720171272427
-0.37,-0.01,9.87,-0.01,-0.02,-0.00,1720171272430
-0.36,0.00,9.94,-0.01,-0.02,-0.01,1720171272433
-0.35,-0.01,9.95,-0.01,-0.02,-0.01,1720171272436
-0.37,-0.05,9.96,-0.01,-0.02,-0.02,1720171272438
-0.43,-0.05,9.96,-0.00,-0.02,-0.03,1720171272441
-0.46,-0.05,9.91,-0.00,-0.02,-0.03,1720171272444
-0.49,-0.04,9.89,0.00,-0.02,-0.04,1720171272447
-0.53,-0.08,9.86,0.00,-0.02,-0.04,1720171272450
-0.58,-0.07,9.83,0.00,-0.02,-0.05,1720171272453
-0.63,-0.08,9.76,0.00,-0.02,-0.05,1720171272456
-0.68,-0.07,9.73,0.00,-0.02,-0.05,1720171272459
-0.71,-0.06,9.73,0.00,-0.02,-0.05,1720171272462
-0.76,-0.06,9.72,0.00,-0.02,-0.05,1720171272465
-0.81,-0.10,9.70,-0.00,-0.02,-0.05,1720171272468
-0.85,-0.12,9.73,-0.00,-0.02,-0.04,1720171272470
-0.87,-0.12,9.67,-0.00,-0.02,-0.04,1720171272473
-0.89,-0.15,9.70,-0.00,-0.02,-0.03,1720171272476
-0.88,-0.18,9.72,-0.00,-0.02,-0.02,1720171272479
-0.90,-0.19,9.73,-0.00,-0.03,-0.01,1720171272482
-0.87,-0.19,9.74,-0.00,-0.03,-0.00,1720171272485
-0.80,-0.20,9.74,-0.00,-0.03,0.01,1720171272488
-0.75,-0.23,9.71,-0.00,-0.03,0.02,1720171272491
-0.71,-0.23,9.70,-0.00,-0.03,0.03,1720171272494
-0.64,-0.23,9.73,-0.00,-0.03,0.03,1720171272497
-0.57,-0.23,9.76,-0.00,-0.03,0.04,1720171272500
-0.54,-0.20,9.77,-0.00,-0.03,0.04,1720171272502
-0.44,-0.20,9.78,-0.00,-0.03,0.05,1720171272505
-0.34,-0.21,9.82,-0.01,-0.03,0.05,1720171272508
-0.26,-0.22,9.84,-0.01,-0.03,0.05,1720171272511
-0.18,-0.18,9.82,-0.00,-0.03,0.05,1720171272514
-0.14,-0.17,9.83,-0.01,-0.03,0.05,1720171272517
-0.06,-0.15,9.84,-0.01,-0.03,0.04,1720171272520
-0.01,-0.16,9.84,-0.01,-0.03,0.04,1720171272523
0.02,-0.16,9.81,-0.01,-0.02,0.03,1720171272526
0.07,-0.15,9.77,-0.01,-0.02,0.03,1720171272529
0.10,-0.16,9.79,-0.01,-0.02,0.02,1720171272532
0.12,-0.15,9.78,-0.01,-0.02,0.02,1720171272534
0.12,-0.18,9.83,-0.01,-0.02,0.01,1720171272537
0.15,-0.20,9.83,-0.01,-0.02,0.00,1720171272540
0.15,-0.24,9.79,-0.01,-0.01,-0.00,1720171272543
0.14,-0.27,9.80,-0.01,-0.01,-0.01,1720171272546
0.15,-0.26,9.81,-0.01,-0.01,-0.02,1720171272549
0.17,-0.26,9.84,-0.01,-0.00,-0.02,1720171272552
0.16,-0.25,9.88,-0.01,-0.00,-0.03,1720171272555
0.14,-0.25,9.91,-0.01,0.00,-0.04,1720171272558
0.12,-0.24,9.95,-0.01,0.00,-0.05,1720171272561
0.10,-0.24,9.96,-0.01,0.01,-0.06,1720171272564
0.06,-0.23,9.98,-0.00,0.01,-0.06,1720171272566
0.02,-0.23,9.99,-0.00,0.01,-0.07,1720171272569
0.00,-0.25,9.99,-0.00,0.01,-0.07,1720171272572
-0.04,-0.27,9.94,-0.00,0.01,-0.07,1720171272575
-0.06,-0.26,9.87,0.00,0.02,-0.07,1720171272578
-0.06,-0.25,9.83,0.00,0.02,-0.07,1720171272581
-0.09,-0.28,9.81,0.00,0.02,-0.08,1720171272584
-0.13,-0.28,9.78,-0.00,0.02,-0.08,1720171272587
-0.17,-0.28,9.73,-0.00,0.02,-0.08,1720171272590
-0.22,-0.31,9.70,-0.01,0.02,-0.08,1720171272593
-0.23,-0.31,9.71,-0.01,0.02,-0.08,1720171272595
-0.29,-0.32,9.74,-0.01,0.02,-0.08,1720171272598
-0.32,-0.31,9.74,-0.01,0.02,-0.08,1720171272601
-0.39,-0.31,9.79,-0.01,0.02,-0.08,1720171272604
-0.42,-0.31,9.81,-0.01,0.02,-0.08,1720171272607
-0.45,-0.30,9.81,-0.01,0.02,-0.08,1720171272610
-0.51,-0.32,9.83,-0.01,0.02,-0.08,1720171272613
-0.57,-0.31,9.86,-0.01,0.02,-0.07,1720171272616
-0.63,-0.28,9.85,-0.00,0.02,-0.07,1720171272619
-0.66,-0.25,9.85,-0.00,0.02,-0.07,1720171272622
-0.70,-0.25,9.83,-0.00,0.02,-0.07,1720171272625
-0.74,-0.25,9.80,-0.00,0.02,-0.06,1720171272627
-0.79,-0.26,9.78,-0.00,0.02,-0.06,1720171272630
-0.81,-0.24,9.75,-0.00,0.02,-0.06,1720171272633
-0.86,-0.24,9.76,-0.01,0.02,-0.05,1720171272636
-0.88,-0.26,9.79,-0.01,0.02,-0.05,1720171272639
-0.91,-0.28,9.79,-0.01,0.02,-0.04,1720171272642
-0.91,-0.31,9.82,-0.01,0.02,-0.04,1720171272645
-0.93,-0.30,9.82,-0.01,0.02,-0.03,1720171272648
-0.91,-0.33,9.84,-0.01,0.02,-0.02,1720171272651
-0.89,-0.30,9.81,-0.01,0.02,-0.01,1720171272654
-0.85,-0.30,9.85,-0.01,0.02,-0.01,1720171272657
-0.80,-0.28,9.83,-0.00,0.01,-0.00,1720171272659
-0.74,-0.28,9.84,-0.00,0.01,0.00,1720171272662
-0.69,-0.28,9.84,-0.00,0.01,0.00,1720171272665
-0.62,-0.24,9.84,0.00,0.01,0.00,1720171272668
-0.56,-0.21,9.81,0.00,0.01,0.01,1720171272671
-0.50,-0.21,9.76,0.00,0.01,0.00,1720171272674
-0.44,-0.21,9.76,0.00,0.01,-0.00,1720171272677
-0.38,-0.22,9.75,-0.00,0.01,-0.00,1720171272680
-0.34,-0.22,9.76,-0.00,0.01,-0.01,1720171272683
-0.27,-0.23,9.77,-0.00,0.01,-0.01,1720171272686
-0.23,-0.23,9.78,-0.01,0.01,-0.02,1720171272689
-0.22,-0.24,9.83,-0.01,0.01,-0.02,1720171272691
-0.19,-0.25,9.86,-0.01,0.01,-0.03,1720171272694
-0.17,-0.25,9.86,-0.01,0.01,-0.03,1720171272697
-0.18,-0.23,9.95,-0.01,0.02,-0.04,1720171272700
-0.21,-0.22,9.94,-0.01,0.02,-0.05,1720171272703
-0.23,-0.24,9.94,-0.00,0.02,-0.06,1720171272706
-0.29,-0.24,9.91,-0.00,0.02,-0.07,1720171272709
-0.35,-0.26,9.91,-0.00,0.02,-0.07,1720171272712
-0.42,-0.29,9.88,0.00,0.02,-0.08,1720171272715
-0.49,-0.33,9.86,0.00,0.02,-0.08,1720171272718
-0.55,-0.34,9.83,0.00,0.02,-0.08,1720171272721
-0.65,-0.35,9.78,0.00,0.02,-0.08,1720171272723
-0.70,-0.34,9.72,0.00,0.02,-0.08,1720171272726
-0.77,-0.34,9.74,-0.00,0.02,-0.08,1720171272729
-0.81,-0.35,9.72,-0.00,0.02,-0.07,1720171272732
-0.90,-0.34,9.67,-0.00,0.01,-0.07,1720171272735
-0.93,-0.33,9.65,-0.00,0.01,-0.06,1720171272738
-0.94,-0.34,9.66,-0.01,0.01,-0.06,1720171272741
-0.95,-0.34,9.70,-0.01,0.01,-0.05,1720171272744
-0.95,-0.34,9.71,-0.01,0.01,-0.04,1720171272747
-0.96,-0.31,9.71,-0.01,0.01,-0.03,1720171272750
-0.96,-0.31,9.77,-0.01,0.01,-0.03,1720171272753
-0.94,-0.33,9.80,-0.01,0.01,-0.02,1720171272755
-0.89,-0.35,9.84,-0.01,0.01,-0.01,1720171272758
-0.85,-0.34,9.87,-0.01,0.01,-0.00,1720171272761
-0.82,-0.35,9.87,-0.01,0.00,0.00,1720171272764
-0.73,-0.35,9.92,-0.01,0.00,0.01,1720171272767
-0.66,-0.34,9.91,-0.00,0.00,0.01,1720171272770
-0.58,-0.31,9.86,-0.00,0.00,0.01,1720171272773
-0.52,-0.29,9.86,0.00,0.00,0.01,1720171272776
-0.45,-0.25,9.87,0.00,-0.00,0.01,1720171272779
-0.43,-0.23,9.80,0.00,0.00,0.00,1720171272782
-0.37,-0.21,9.77,0.00,0.00,-0.00,1720171272785
-0.37,-0.18,9.75,0.00,0.00,-0.00,1720171272787
-0.33,-0.17,9.69,0.00,-0.00,-0.01,1720171272790
-0.28,-0.15,9.66,0.00,0.00,-0.01,1720171272793
-0.27,-0.14,9.64,0.00,0.00,-0.01,1720171272796
-0.25,-0.16,9.67,-0.00,0.00,-0.02,1720171272799
-0.25,-0.20,9.69,-0.01,0.00,-0.02,1720171272802
-0.24,-0.18,9.68,-0.01,0.00,-0.02,1720171272805
-0.26,-0.17,9.68,-0.01,0.00,-0.03,1720171272808
-0.27,-0.19,9.71,-0.02,0.00,-0.03,1720171272811
-0.29,-0.22,9.80,-0.02,0.00,-0.03,1720171272814
-0.33,-0.23,9.82,-0.02,0.00,-0.03,1720171272817
-0.33,-0.24,9.91,-0.02,0.01,-0.02,1720171272819
-0.30,-0.26,9.93,-0.02,0.01,-0.02,1720171272822
-0.30,-0.26,9.97,-0.02,0.01,-0.01,1720171272825
-0.29,-0.23,9.99,-0.01,0.01,-0.00,1720171272828
-0.27,-0.23,10.02,-0.01,0.01,-0.00,1720171272831
-0.25,-0.21,9.99,-0.01,0.01,0.01,1720171272834
-0.22,-0.17,9.92,-0.00,0.01,0.01,1720171272837
-0.18,-0.13,9.82,0.00,0.02,0.01,1720171272840
-0.09,-0.08,9.75,0.00,0.02,0.01,1720171272843
-0.04,-0.05,9.70,0.00,0.02,0.01,1720171272846
-0.01,-0.01,9.63,0.00,0.02,0.00,1720171272849
0.01,0.03,9.58,-0.00,0.02,-0.00,1720171272851
0.05,0.02,9.51,-0.01,0.02,-0.01,1720171272854
0.07,0.06,9.53,-0.01,0.02,-0.01,1720171272857
0.11,0.04,9.53,-0.02,0.02,-0.02,1720171272860
0.10,0.05,9.59,-0.02,0.03,-0.03,1720171272863
0.09,0.06,9.66,-0.03,0.03,-0.04,1720171272866
0.02,0.05,9.74,-0.03,0.03,-0.05,1720171272869
-0.01,0.01,9.86,-0.03,0.03,-0.05,1720171272872
-0.07,-0.02,9.97,-0.03,0.03,-0.06,1720171272875
-0.13,-0.07,10.07,-0.02,0.04,-0.07,1720171272878
-0.21,-0.08,10.12,-0.02,0.04,-0.07,1720171272881
-0.28,-0.09,10.13,-0.01,0.04,-0.07,1720171272884
-0.37,-0.08,10.07,-0.00,0.04,-0.07,1720171272886
-0.40,-0.09,10.03,0.00,0.04,-0.07,1720171272889
-0.43,-0.08,9.97,0.01,0.04,-0.06,1720171272892
-0.46,-0.07,9.88,0.01,0.04,-0.06,1720171272895
-0.48,-0.03,9.79,0.01,0.04,-0.05,1720171272898
-0.51,-0.00,9.75,0.01,0.04,-0.05,1720171272901
-0.51,0.03,9.66,0.01,0.04,-0.04,1720171272904
-0.52,0.05,9.59,0.00,0.04,-0.04,1720171272907
-0.50,0.05,9.51,-0.00,0.04,-0.03,1720171272910
-0.50,0.08,9.48,-0.01,0.04,-0.03,1720171272913
-0.48,0.11,9.48,-0.01,0.05,-0.03,1720171272915
-0.50,0.12,9.50,-0.02,0.04,-0.02,1720171272918
-0.47,0.13,9.57,-0.02,0.05,-0.02,1720171272921
-0.45,0.12,9.63,-0.03,0.04,-0.02,1720171272924
-0.45,0.14,9.73,-0.03,0.04,-0.01,1720171272927
-0.42,0.12,9.88,-0.03,0.04,-0.01,1720171272930
-0.40,0.09,9.91,-0.03,0.04,-0.01,1720171272933
-0.37,0.09,9.96,-0.02,0.05,-0.01,1720171272936
-0.34,0.09,10.02,-0.02,0.05,-0.01,1720171272939
-0.29,0.11,10.07,-0.02,0.05,-0.01,1720171272942
-0.28,0.11,10.10,-0.01,0.05,-0.01,1720171272945
-0.26,0.11,10.10,-0.01,0.05,-0.01,1720171272947
-0.23,0.11,10.10,-0.00,0.05,-0.01,1720171272950
-0.20,0.14,10.06,-0.00,0.05,-0.01,1720171272953
-0.18,0.13,9.99,0.00,0.05,-0.01,1720171272956
-0.16,0.16,9.93,0.00,0.05,-0.01,1720171272959
-0.12,0.18,9.88,0.01,0.06,-0.01,1720171272962
-0.10,0.22,9.84,0.01,0.06,-0.01,1720171272965
-0.11,0.21,9.75,0.01,0.06,-0.02,1720171272968
-0.11,0.22,9.74,0.01,0.06,-0.02,1720171272971
-0.07,0.23,9.69,0.01,0.06,-0.02,1720171272974
-0.06,0.25,9.65,0.00,0.07,-0.02,1720171272977
-0.06,0.26,9.60,0.00,0.07,-0.03,1720171272979
-0.10,0.26,9.59,-0.00,0.07,-0.03,1720171272982
-0.12,0.25,9.58,-0.01,0.07,-0.04,1720171272985
-0.17,0.23,9.62,-0.01,0.07,-0.04,1720171272988
-0.18,0.22,9.67,-0.01,0.07,-0.05,1720171272991
-0.23,0.20,9.70,-0.02,0.07,-0.05,1720171272994
-0.26,0.18,9.73,-0.02,0.08,-0.05,1720171272997
-0.32,0.15,9.76,-0.02,0.08,-0.06,1720171273000
-0.36,0.14,9.84,-0.02,0.08,-0.06,1720171273003
-0.41,0.15,9.92,-0.02,0.08,-0.06,1720171273006
-0.44,0.13,9.98,-0.02,0.08,-0.06,1720171273009
-0.47,0.13,9.99,-0.01,0.08,-0.07,1720171273011
-0.55,0.13,9.97,-0.01,0.08,-0.07,1720171273014
-0.62,0.11,9.98,-0.00,0.08,-0.07,1720171273017
-0.69,0.11,9.96,-0.00,0.08,-0.07,1720171273020
-0.76,0.11,9.90,0.00,0.08,-0.07,1720171273023
-0.79,0.10,9.85,0.00,0.08,-0.07,1720171273026
-0.83,0.11,9.79,0.00,0.08,-0.07,1720171273029
-0.86,0.11,9.74,0.00,0.08,-0.06,1720171273032
-0.93,0.10,9.68,0.00,0.08,-0.06,1720171273035
-0.97,0.10,9.70,-0.00,0.08,-0.06,1720171273038
-1.01,0.11,9.70,-0.00,0.08,-0.05,1720171273041
-1.02,0.11,9.71,-0.01,0.08,-0.05,1720171273043
-1.04,0.10,9.69,-0.01,0.08,-0.04,1720171273046
-1.06,0.10,9.69,-0.01,0.08,-0.04,1720171273049
-1.08,0.10,9.70,-0.01,0.08,-0.04,1720171273052
-1.10,0.06,9.73,-0.01,0.07,-0.03,1720171273055
-1.11,0.05,9.74,-0.01,0.07,-0.03,1720171273058
-1.07,0.03,9.73,-0.01,0.07,-0.02,1720171273061
-1.07,0.01,9.75,-0.01,0.07,-0.02,1720171273064
-1.06,0.01,9.75,-0.01,0.07,-0.02,1720171273067
-1.07,-0.01,9.78,-0.00,0.06,-0.02,1720171273070
-1.08,-0.05,9.78,-0.00,0.06,-0.02,1720171273072
-1.07,-0.08,9.78,-0.00,0.06,-0.02,1720171273075
-1.04,-0.06,9.74,-0.00,0.06,-0.02,1720171273078
-1.02,-0.06,9.75,-0.01,0.06,-0.02,1720171273081
-1.03,-0.08,9.73,-0.01,0.06,-0.02,1720171273084
-1.04,-0.09,9.74,-0.01,0.06,-0.02,1720171273087
-1.03,-0.13,9.74,-0.01,0.06,-0.03,1720171273090
-1.06,-0.15,9.77,-0.01,0.05,-0.03,1720171273093
-1.07,-0.14,9.74,-0.01,0.05,-0.04,1720171273096
-1.07,-0.19,9.73,-0.01,0.05,-0.04,1720171273099
-1.12,-0.21,9.76,-0.01,0.05,-0.04,1720171273102
-1.13,-0.22,9.75,-0.01,0.05,-0.04,1720171273104
-1.15,-0.23,9.76,-0.01,0.05,-0.04,1720171273107
-1.16,-0.25,9.73,-0.00,0.04,-0.03,1720171273110
-1.17,-0.26,9.68,-0.00,0.04,-0.03,1720171273113
-1.16,-0.28,9.66,-0.00,0.04,-0.02,1720171273116
-1.20,-0.27,9.66,-0.01,0.04,-0.02,1720171273119
-1.18,-0.29,9.70,-0.01,0.04,-0.01,1720171273122
-1.13,-0.27,9.73,-0.01,0.03,-0.01,1720171273125
-1.13,-0.27,9.73,-0.01,0.03,0.00,1720171273128
-1.07,-0.31,9.76,-0.01,0.03,0.01,1720171273131
-1.02,-0.33,9.76,-0.02,0.03,0.02,1720171273134
-0.96,-0.31,9.83,-0.02,0.03,0.03,1720171273136
-0.89,-0.32,9.89,-0.02,0.03,0.04,1720171273139
-0.81,-0.34,9.94,-0.02,0.03,0.05,1720171273142
-0.72,-0.30,9.98,-0.02,0.03,0.05,1720171273145
-0.59,-0.26,10.00,-0.01,0.03,0.06,1720171273148
-0.47,-0.26,10.01,-0.01,0.03,0.06,1720171273151
-0.37,-0.26,10.00,-0.01,0.03,0.06,1720171273154
-0.25,-0.23,9.96,-0.00,0.03,0.06,1720171273157
-0.19,-0.21,9.96,-0.00,0.03,0.05,1720171273160
-0.07,-0.20,9.94,0.00,0.03,0.05,1720171273163
0.02,-0.19,9.87,0.00,0.03,0.04,1720171273166
0.08,-0.15,9.84,0.00,0.03,0.03,1720171273168
0.14,-0.15,9.79,0.00,0.04,0.02,1720171273171
0.18,-0.12,9.74,0.00,0.04,0.01,1720171273174
0.22,-0.08,9.73,-0.00,0.04,-0.01,1720171273177
0.19,-0.05,9.70,-0.00,0.05,-0.02,1720171273180
0.15,-0.03,9.69,-0.00,0.05,-0.04,1720171273183
0.11,-0.01,9.67,-0.01,0.05,-0.06,1720171273186
-0.09,-0.04,9.70,-0.01,0.05,-0.11,1720171273193
-0.23,-0.06,9.74,-0.01,0.06,-0.12,1720171273196
-0.40,-0.08,9.75,-0.01,0.06,-0.14,1720171273199
-0.49,-0.09,9.76,-0.01,0.06,-0.14,1720171273202
-0.64,-0.11,9.77,-0.02,0.06,-0.15,1720171273205
-0.80,-0.14,9.81,-0.02,0.06,-0.16,1720171273207
-0.97,-0.14,9.86,-0.02,0.06,-0.16,1720171273210
-1.12,-0.18,9.87,-0.02,0.06,-0.16,1720171273213
-1.26,-0.18,9.93,-0.02,0.06,-0.16,1720171273216
-1.39,-0.19,9.95,-0.01,0.06,-0.15,1720171273219
-1.49,-0.21,9.95,-0.01,0.06,-0.15,1720171273222
-1.62,-0.21,9.96,-0.01,0.06,-0.14,1720171273225
-1.71,-0.23,9.90,-0.01,0.06,-0.13,1720171273228
-1.75,-0.23,9.86,-0.00,0.06,-0.12,1720171273231
-1.78,-0.23,9.89,-0.00,0.06,-0.11,1720171273234
-1.82,-0.22,9.82,0.00,0.05,-0.09,1720171273237
-1.86,-0.20,9.79,0.00,0.05,-0.08,1720171273239
-1.88,-0.18,9.72,0.00,0.05,-0.07,1720171273242
-1.92,-0.15,9.65,0.01,0.04,-0.06,1720171273245
-1.92,-0.11,9.60,0.00,0.04,-0.05,1720171273248
-1.91,-0.11,9.57,0.00,0.03,-0.04,1720171273251
-1.91,-0.11,9.50,-0.00,0.02,-0.03,1720171273254
-1.90,-0.09,9.50,-0.00,0.01,-0.02,1720171273257
-1.87,-0.07,9.58,-0.01,0.01,-0.02,1720171273260
-1.85,-0.08,9.63,-0.01,0.00,-0.01,1720171273263
-1.86,-0.08,9.64,-0.02,0.00,-0.01,1720171273266
-1.83,-0.10,9.71,-0.02,0.00,0.00,1720171273268
-1.82,-0.16,9.77,-0.02,-0.00,0.01,1720171273271
-1.79,-0.18,9.83,-0.02,-0.01,0.02,1720171273274
-1.76,-0.20,9.91,-0.02,-0.01,0.02,1720171273277
-1.69,-0.19,9.99,-0.02,-0.01,0.03,1720171273280
-1.63,-0.20,10.02,-0.01,-0.02,0.03,1720171273283
-1.56,-0.20,10.00,-0.01,-0.02,0.04,1720171273286
-1.47,-0.21,9.99,-0.00,-0.02,0.05,1720171273289
-1.39,-0.19,9.96,0.00,-0.03,0.05,1720171273292
-1.30,-0.16,9.89,0.01,-0.03,0.06,1720171273295
-1.24,-0.14,9.86,0.01,-0.03,0.06,1720171273298
-1.16,-0.13,9.78,0.01,-0.03,0.06,1720171273300
-1.03,-0.10,9.72,0.01,-0.04,0.07,1720171273303
-0.91,-0.11,9.68,0.01,-0.04,0.07,1720171273306
-0.80,-0.11,9.66,0.00,-0.04,0.07,1720171273309
-0.68,-0.13,9.66,0.00,-0.04,0.07,1720171273312
-0.57,-0.14,9.69,-0.00,-0.03,0.07,1720171273315
-0.48,-0.12,9.66,-0.01,-0.03,0.07,1720171273318
-0.36,-0.12,9.71,-0.01,-0.03,0.06,1720171273321
-0.27,-0.12,9.74,-0.01,-0.03,0.05,1720171273324
-0.17,-0.10,9.78,-0.01,-0.03,0.05,1720171273327
-0.10,-0.09,9.82,-0.01,-0.03,0.03,1720171273330
-0.05,-0.09,9.82,-0.01,-0.03,0.02,1720171273332
0.00,-0.05,9.82,-0.01,-0.03,0.01,1720171273335
-0.00,-0.04,9.83,-0.00,-0.03,-0.01,1720171273338
0.00,-0.02,9.81,-0.00,-0.03,-0.03,1720171273341
-0.01,-0.00,9.80,-0.00,-0.03,-0.05,1720171273344
-0.06,0.00,9.81,-0.00,-0.02,-0.06,1720171273347
-0.14,-0.02,9.84,-0.00,-0.02,-0.08,1720171273350
-0.25,-0.08,9.84,-0.00,-0.02,-0.10,1720171273353
-0.38,-0.09,9.83,-0.01,-0.01,-0.11,1720171273356
-0.54,-0.11,9.79,-0.01,-0.01,-0.12,1720171273359
-0.72,-0.14,9.80,-0.01,-0.01,-0.13,1720171273362
-0.81,-0.16,9.79,-0.01,-0.01,-0.13,1720171273364
-0.94,-0.19,9.81,-0.01,-0.01,-0.14,1720171273367
-1.10,-0.19,9.83,-0.01,-0.01,-0.14,1720171273370
-1.19,-0.23,9.82,-0.00,-0.01,-0.13,1720171273373
-1.31,-0.23,9.82,-0.00,-0.01,-0.12,1720171273376
-1.40,-0.22,9.84,0.00,-0.01,-0.11,1720171273379
-1.49,-0.20,9.79,0.00,-0.01,-0.10,1720171273382
-1.55,-0.19,9.76,0.00,-0.01,-0.09,1720171273385
-1.58,-0.20,9.72,0.00,-0.01,-0.08,1720171273388
-1.63,-0.21,9.65,-0.00,-0.02,-0.06,1720171273391
-1.65,-0.23,9.64,-0.00,-0.02,-0.05,1720171273394
-1.65,-0.24,9.61,-0.00,-0.02,-0.03,1720171273396
-1.65,-0.26,9.61,-0.01,-0.03,-0.03,1720171273399
-1.59,-0.23,9.63,-0.01,-0.03,-0.01,1720171273402
-1.52,-0.25,9.69,-0.01,-0.04,0.00,1720171273405
-1.46,-0.24,9.78,-0.01,-0.04,0.01,1720171273408
-1.33,-0.23,9.83,-0.01,-0.04,0.02,1720171273411
-1.24,-0.21,9.87,-0.01,-0.04,0.03,1720171273414
-1.16,-0.16,9.86,-0.01,-0.05,0.03,1720171273417
-1.10,-0.15,9.88,-0.01,-0.05,0.03,1720171273420
-0.99,-0.13,9.93,-0.00,-0.05,0.03,1720171273423
-0.89,-0.11,9.94,-0.00,-0.05,0.03,1720171273426
-0.77,-0.12,9.92,0.00,-0.05,0.03,1720171273428
-0.73,-0.10,9.90,0.00,-0.05,0.02,1720171273431
-0.69,-0.09,9.83,0.00,-0.05,0.02,1720171273434
-0.66,-0.08,9.81,0.00,-0.05,0.01,1720171273437
-0.64,-0.11,9.75,0.00,-0.06,0.00,1720171273440
-0.60,-0.12,9.76,-0.00,-0.05,-0.01,1720171273443
-0.59,-0.15,9.73,-0.00,-0.05,-0.01,1720171273446
-0.60,-0.15,9.70,-0.01,-0.05,-0.02,1720171273449
-0.62,-0.16,9.73,-0.01,-0.05,-0.03,1720171273452
-0.67,-0.19,9.77,-0.01,-0.05,-0.03,1720171273455
-0.69,-0.21,9.81,-0.01,-0.05,-0.04,1720171273458
-0.76,-0.23,9.85,-0.01,-0.05,-0.04,1720171273460
-0.79,-0.23,9.85,-0.01,-0.05,-0.04,1720171273463
-0.84,-0.26,9.89,-0.01,-0.05,-0.05,1720171273466
-0.88,-0.26,9.92,-0.00,-0.05,-0.04,1720171273469
-0.89,-0.27,9.91,-0.00,-0.06,-0.04,1720171273472
-0.91,-0.27,9.86,0.00,-0.06,-0.04,1720171273475
-0.94,-0.28,9.85,0.01,-0.06,-0.03,1720171273478
-0.97,-0.31,9.80,0.01,-0.06,-0.03,1720171273481
-0.98,-0.29,9.73,0.01,-0.06,-0.03,1720171273484
-0.96,-0.29,9.70,0.01,-0.06,-0.02,1720171273487
-0.92,-0.28,9.65,0.00,-0.06,-0.01,1720171273490
-0.91,-0.30,9.64,-0.00,-0.06,-0.01,1720171273492
-0.89,-0.31,9.61,-0.01,-0.07,-0.01,1720171273495
-0.87,-0.32,9.61,-0.01,-0.06,-0.00,1720171273498
-0.83,-0.31,9.67,-0.01,-0.06,-0.00,1720171273501
-0.75,-0.30,9.75,-0.02,-0.06,0.00,1720171273504
-0.70,-0.32,9.80,-0.02,-0.06,0.00,1720171273507
-0.66,-0.32,9.88,-0.01,-0.06,0.00,1720171273510
-0.61,-0.30,9.94,-0.01,-0.06,0.01,1720171273513
-0.57,-0.27,9.95,-0.01,-0.06,0.00,1720171273516
-0.53,-0.25,9.92,-0.00,-0.06,0.00,1720171273519
-0.49,-0.24,9.89,-0.00,-0.06,0.00,1720171273522
-0.43,-0.23,9.83,0.00,-0.06,-0.00,1720171273524
-0.41,-0.22,9.79,0.00,-0.06,-0.00,1720171273527
-0.39,-0.22,9.76,0.01,-0.06,-0.01,1720171273530
-0.38,-0.22,9.69,0.00,-0.06,-0.01,1720171273533
-0.36,-0.20,9.65,0.00,-0.06,-0.01,1720171273536
-0.35,-0.19,9.64,-0.00,-0.06,-0.02,1720171273539
-0.34,-0.21,9.63,-0.01,-0.06,-0.02,1720171273542
-0.34,-0.21,9.68,-0.01,-0.06,-0.02,1720171273545
-0.33,-0.20,9.74,-0.01,-0.06,-0.02,1720171273548
-0.27,-0.21,9.84,-0.02,-0.05,-0.02,1720171273551
-0.27,-0.23,9.88,-0.02,-0.05,-0.02,1720171273554
-0.30,-0.23,9.97,-0.02,-0.05,-0.02,1720171273556
-0.29,-0.23,10.00,-0.01,-0.05,-0.02,1720171273559
-0.30,-0.23,10.03,-0.01,-0.05,-0.02,1720171273562
-0.31,-0.22,10.05,-0.01,-0.05,-0.03,1720171273565
-0.30,-0.21,10.02,-0.00,-0.04,-0.03,1720171273568
-0.30,-0.19,9.96,0.00,-0.05,-0.03,1720171273571
-0.32,-0.17,9.88,0.01,-0.05,-0.03,1720171273574
-0.32,-0.15,9.82,0.01,-0.05,-0.04,1720171273577
-0.32,-0.16,9.73,0.01,-0.05,-0.04,1720171273580
-0.34,-0.15,9.67,0.01,-0.04,-0.04,1720171273583
-0.36,-0.17,9.65,0.00,-0.04,-0.05,1720171273585
-0.43,-0.15,9.63,-0.00,-0.04,-0.05,1720171273588
-0.45,-0.14,9.66,-0.01,-0.04,-0.06,1720171273591
-0.48,-0.16,9.68,-0.01,-0.04,-0.06,1720171273594
-0.55,-0.15,9.73,-0.01,-0.04,-0.06,1720171273597
-0.60,-0.17,9.75,-0.01,-0.04,-0.06,1720171273600
-0.64,-0.19,9.77,-0.01,-0.04,-0.06,1720171273603
-0.69,-0.19,9.83,-0.01,-0.04,-0.06,1720171273606
-0.72,-0.17,9.84,-0.01,-0.04,-0.05,1720171273609
-0.77,-0.17,9.86,-0.01,-0.04,-0.05,1720171273612
-0.81,-0.15,9.91,-0.01,-0.04,-0.05,1720171273615
-0.84,-0.18,9.87,-0.00,-0.04,-0.04,1720171273617
-0.85,-0.15,9.89,-0.00,-0.04,-0.04,1720171273620
-0.86,-0.16,9.85,-0.00,-0.04,-0.04,1720171273623
-0.86,-0.13,9.82,-0.00,-0.04,-0.03,1720171273626
-0.84,-0.11,9.81,-0.00,-0.04,-0.03,1720171273629
-0.86,-0.11,9.82,-0.00,-0.04,-0.03,1720171273632
-0.86,-0.12,9.75,-0.00,-0.04,-0.03,1720171273635
-0.83,-0.11,9.79,-0.00,-0.04,-0.02,1720171273638
-0.78,-0.10,9.75,-0.00,-0.04,-0.02,1720171273641
-0.77,-0.10,9.78,-0.00,-0.05,-0.02,1720171273644
-0.76,-0.10,9.79,-0.00,-0.05,-0.02,1720171273647
-0.77,-0.11,9.78,-0.00,-0.05,-0.02,1720171273649
-0.74,-0.14,9.82,0.00,-0.05,-0.02,1720171273652
-0.73,-0.11,9.79,0.00,-0.05,-0.02,1720171273655
-0.70,-0.11,9.73,0.00,-0.05,-0.02,1720171273658
-0.68,-0.11,9.73,0.00,-0.05,-0.02,1720171273661
-0.66,-0.09,9.68,0.00,-0.05,-0.02,1720171273664
-0.63,-0.08,9.68,0.00,-0.05,-0.02,1720171273667
-0.64,-0.07,9.65,-0.00,-0.05,-0.03,1720171273670
-0.65,-0.07,9.67,-0.00,-0.05,-0.03,1720171273673
-0.65,-0.09,9.68,-0.00,-0.05,-0.03,1720171273676
-0.63,-0.09,9.70,-0.01,-0.05,-0.03,1720171273679
-0.67,-0.09,9.74,-0.01,-0.05,-0.03,1720171273681
-0.69,-0.09,9.74,-0.01,-0.05,-0.03,1720171273684
-0.71,-0.11,9.80,-0.01,-0.05,-0.03,1720171273687
-0.71,-0.12,9.87,-0.02,-0.05,-0.02,1720171273690
-0.72,-0.12,9.95,-0.01,-0.05,-0.02,1720171273693
-0.72,-0.11,9.95,-0.01,-0.05,-0.02,1720171273696
-0.69,-0.10,9.97,-0.01,-0.05,-0.02,1720171273699
-0.68,-0.10,10.04,-0.01,-0.05,-0.01,1720171273702
-0.67,-0.08,9.96,-0.00,-0.06,-0.01,1720171273705
-0.64,-0.09,9.93,0.00,-0.05,-0.01,1720171273708
-0.62,-0.07,9.84,0.00,-0.05,-0.01,1720171273711
-0.58,-0.04,9.78,0.00,-0.05,-0.00,1720171273713
-0.54,-0.03,9.69,0.01,-0.05,-0.00,1720171273716
-0.49,-0.06,9.67,0.00,-0.05,-0.00,1720171273719
-0.46,-0.03,9.62,-0.00,-0.05,-0.00,1720171273722
-0.45,-0.02,9.59,-0.00,-0.05,-0.00,1720171273725
-0.43,-0.02,9.62,-0.01,-0.05,-0.00,1720171273728
-0.40,-0.01,9.63,-0.01,-0.05,-0.01,1720171273731
-0.37,0.00,9.68,-0.01,-0.05,-0.01,1720171273734
-0.34,0.00,9.76,-0.02,-0.05,-0.02,1720171273737
-0.37,-0.03,9.85,-0.02,-0.05,-0.02,1720171273740
-0.35,-0.04,9.88,-0.02,-0.05,-0.03,1720171273743
-0.36,-0.05,9.93,-0.01,-0.05,-0.03,1720171273745
-0.35,-0.06,9.96,-0.01,-0.05,-0.03,1720171273748
-0.34,-0.07,9.98,-0.01,-0.05,-0.03,1720171273751
-0.35,-0.05,9.97,-0.00,-0.05,-0.03,1720171273754
-0.36,-0.05,9.94,0.00,-0.05,-0.03,1720171273757
-0.38,-0.07,9.90,0.00,-0.05,-0.03,1720171273760
-0.40,-0.07,9.83,0.01,-0.05,-0.03,1720171273763
-0.41,-0.03,9.78,0.01,-0.05,-0.03,1720171273766
-0.41,-0.03,9.74,0.00,-0.05,-0.03,1720171273769
-0.41,-0.03,9.70,0.00,-0.05,-0.03,1720171273772
-0.40,-0.03,9.63,0.00,-0.04,-0.02,1720171273775
-0.37,-0.02,9.60,-0.00,-0.04,-0.02,1720171273777
-0.36,-0.01,9.58,-0.00,-0.04,-0.02,1720171273780
-0.36,-0.02,9.65,-0.01,-0.04,-0.02,1720171273783
-0.35,-0.02,9.70,-0.01,-0.04,-0.01,1720171273786
-0.35,-0.01,9.73,-0.01,-0.04,-0.01,1720171273789
-0.36,0.00,9.76,-0.01,-0.04,-0.01,1720171273792
-0.32,0.01,9.81,-0.01,-0.04,-0.01,1720171273795
-0.31,0.00,9.84,-0.01,-0.04,-0.02,1720171273798
-0.29,-0.01,9.88,-0.01,-0.04,-0.02,1720171273801
-0.28,-0.03,9.88,-0.01,-0.04,-0.02,1720171273804
-0.29,-0.03,9.92,-0.01,-0.04,-0.02,1720171273806
-0.30,-0.04,9.93,-0.01,-0.04,-0.03,1720171273809
-0.30,-0.06,9.90,-0.00,-0.04,-0.03,1720171273812
-0.34,-0.05,9.90,-0.00,-0.04,-0.03,1720171273815
-0.34,-0.03,9.88,-0.00,-0.04,-0.03,1720171273818
-0.37,-0.02,9.83,-0.00,-0.04,-0.03,1720171273821
-0.38,-0.01,9.83,-0.00,-0.03,-0.03,1720171273824
-0.37,-0.00,9.80,-0.00,-0.03,-0.03,1720171273827
-0.38,-0.00,9.77,-0.00,-0.03,-0.03,1720171273830
-0.39,0.02,9.77,-0.00,-0.03,-0.03,1720171273833
-0.37,-0.02,9.76,-0.00,-0.03,-0.03,1720171273836
-0.37,-0.01,9.77,-0.00,-0.03,-0.03,1720171273838
-0.38,-0.02,9.72,-0.00,-0.03,-0.03,1720171273841
-0.41,-0.02,9.69,-0.00,-0.03,-0.03,1720171273844
-0.39,-0.02,9.71,-0.00,-0.03,-0.04,1720171273847
-0.42,-0.02,9.71,-0.00,-0.03,-0.04,1720171273850
-0.45,-0.02,9.73,-0.01,-0.03,-0.04,1720171273853
-0.46,-0.03,9.79,-0.01,-0.03,-0.04,1720171273856
-0.47,-0.02,9.77,-0.01,-0.03,-0.04,1720171273859
-0.47,-0.01,9.81,-0.01,-0.03,-0.04,1720171273862
-0.52,-0.03,9.81,-0.01,-0.03,-0.05,1720171273865
-0.55,-0.05,9.79,-0.01,-0.03,-0.05,1720171273868
-0.57,-0.03,9.81,-0.01,-0.03,-0.05,1720171273871
-0.60,-0.01,9.84,-0.01,-0.03,-0.05,1720171273874
-0.62,-0.01,9.86,-0.01,-0.03,-0.05,1720171273876
-0.66,-0.03,9.86,-0.01,-0.03,-0.05,1720171273879
-0.70,-0.03,9.87,-0.00,-0.03,-0.05,1720171273882
-0.72,-0.03,9.85,-0.00,-0.03,-0.05,1720171273885
-0.76,-0.03,9.84,-0.00,-0.03,-0.05,1720171273888
-0.77,-0.05,9.85,-0.00,-0.03,-0.05,1720171273891
-0.80,-0.04,9.80,-0.00,-0.03,-0.05,1720171273894
-0.81,-0.05,9.78,-0.00,-0.03,-0.05,1720171273897
-0.82,-0.07,9.73,-0.00,-0.03,-0.04,1720171273900
-0.86,-0.09,9.73,-0.00,-0.03,-0.04,1720171273903
-0.87,-0.09,9.68,-0.00,-0.03,-0.04,1720171273906
-0.89,-0.09,9.70,-0.00,-0.04,-0.04,1720171273908
-0.90,-0.09,9.71,-0.00,-0.04,-0.03,1720171273911
-0.89,-0.07,9.71,-0.00,-0.04,-0.03,1720171273914
-0.89,-0.08,9.71,-0.00,-0.04,-0.03,1720171273917
-0.86,-0.10,9.69,-0.00,-0.04,-0.02,1720171273920
-0.87,-0.11,9.73,-0.00,-0.04,-0.02,1720171273923
-0.86,-0.12,9.76,-0.01,-0.04,-0.02,1720171273926
-0.85,-0.14,9.74,-0.01,-0.05,-0.02,1720171273929
-0.82,-0.14,9.77,-0.01,-0.05,-0.02,1720171273932
-0.78,-0.16,9.80,-0.01,-0.05,-0.02,1720171273935
-0.78,-0.17,9.77,-0.01,-0.05,-0.01,1720171273938
-0.77,-0.21,9.84,-0.01,-0.05,-0.01,1720171273940
-0.75,-0.21,9.89,-0.01,-0.05,-0.01,1720171273943
-0.72,-0.20,9.93,-0.01,-0.05,-0.01,1720171273946
-0.68,-0.22,9.96,-0.01,-0.05,-0.01,1720171273949
-0.67,-0.24,9.96,-0.01,-0.05,-0.01,1720171273952
-0.62,-0.21,9.93,-0.00,-0.05,-0.01,1720171273955
-0.61,-0.20,9.94,0.00,-0.05,-0.01,1720171273958
-0.61,-0.21,9.94,0.00,-0.05,-0.01,1720171273961
-0.57,-0.22,9.90,0.00,-0.05,-0.00,1720171273964
-0.52,-0.23,9.81,0.00,-0.05,-0.00,1720171273967
-0.50,-0.23,9.75,0.01,-0.06,-0.00,1720171273970
-0.46,-0.21,9.71,0.01,-0.05,0.00,1720171273972
-0.42,-0.22,9.65,0.00,-0.05,0.00,1720171273975
-0.37,-0.22,9.64,0.00,-0.05,0.00,1720171273978
-0.31,-0.21,9.67,-0.00,-0.05,0.01,1720171273981
-0.29,-0.21,9.64,-0.01,-0.05,0.01,1720171273984
-0.26,-0.20,9.68,-0.01,-0.05,0.01,1720171273987
-0.23,-0.19,9.70,-0.01,-0.05,0.00,1720171273990
-0.18,-0.20,9.73,-0.01,-0.05,-0.00,1720171273993
-0.15,-0.20,9.76,-0.01,-0.05,-0.00,1720171273996
-0.13,-0.20,9.82,-0.01,-0.05,-0.01,1720171273999
-0.09,-0.19,9.85,-0.01,-0.05,-0.01,1720171274002
-0.09,-0.18,9.88,-0.01,-0.05,-0.01,1720171274004
-0.11,-0.16,9.88,-0.01,-0.05,-0.01,1720171274007
-0.09,-0.20,9.96,-0.01,-0.05,-0.02,1720171274010
-0.08,-0.20,10.01,-0.01,-0.05,-0.02,1720171274013
-0.04,-0.20,10.00,-0.00,-0.05,-0.03,1720171274016
-0.05,-0.19,9.93,-0.00,-0.04,-0.03,1720171274019
-0.06,-0.17,9.91,-0.00,-0.04,-0.03,1720171274022
-0.09,-0.17,9.87,-0.00,-0.04,-0.03,1720171274025
-0.09,-0.16,9.90,-0.00,-0.04,-0.04,1720171274028
-0.11,-0.17,9.93,-0.00,-0.04,-0.04,1720171274031
-0.14,-0.17,9.88,0.00,-0.04,-0.05,1720171274034
-0.18,-0.17,9.84,-0.00,-0.03,-0.05,1720171274036
-0.19,-0.20,9.80,0.00,-0.03,-0.05,1720171274039
-0.24,-0.19,9.79,-0.00,-0.03,-0.05,1720171274042
-0.29,-0.18,9.77,-0.00,-0.03,-0.05,1720171274045
-0.33,-0.15,9.74,-0.00,-0.03,-0.05,1720171274048
-0.34,-0.15,9.75,-0.00,-0.03,-0.05,1720171274051
-0.36,-0.18,9.74,-0.00,-0.03,-0.05,1720171274054
-0.41,-0.20,9.72,-0.00,-0.03,-0.05,1720171274057
-0.44,-0.20,9.73,-0.00,-0.03,-0.04,1720171274060
-0.47,-0.20,9.74,-0.01,-0.03,-0.04,1720171274063
-0.50,-0.20,9.78,-0.01,-0.03,-0.04,1720171274065
-0.50,-0.22,9.77,-0.01,-0.03,-0.03,1720171274068
-0.49,-0.22,9.72,-0.01,-0.03,-0.03,1720171274071
-0.46,-0.21,9.77,-0.01,-0.03,-0.03,1720171274074
-0.44,-0.21,9.77,-0.01,-0.03,-0.02,1720171274077
-0.42,-0.18,9.79,-0.01,-0.03,-0.02,1720171274080
-0.40,-0.19,9.78,-0.01,-0.03,-0.01,1720171274083
-0.35,-0.17,9.81,-0.01,-0.03,-0.01,1720171274086
-0.32,-0.17,9.82,-0.01,-0.03,-0.01,1720171274089
-0.31,-0.18,9.81,-0.01,-0.03,-0.01,1720171274092
-0.30,-0.17,9.81,-0.01,-0.03,-0.02,1720171274095
-0.28,-0.14,9.84,-0.01,-0.03,-0.02,1720171274097
-0.25,-0.12,9.87,-0.01,-0.03,-0.02,1720171274100
-0.24,-0.11,9.84,-0.01,-0.03,-0.03,1720171274103
-0.28,-0.10,9.90,-0.01,-0.03,-0.03,1720171274106
-0.30,-0.11,9.90,-0.01,-0.03,-0.04,1720171274109
-0.32,-0.11,9.91,-0.00,-0.03,-0.04,1720171274112
-0.36,-0.11,9.87,-0.00,-0.03,-0.05,1720171274115
-0.39,-0.11,9.89,-0.00,-0.03,-0.05,1720171274118
-0.43,-0.12,9.84,0.00,-0.03,-0.05,1720171274121
-0.48,-0.11,9.80,0.00,-0.03,-0.06,1720171274124
-0.52,-0.11,9.76,-0.00,-0.03,-0.06,1720171274127
-0.57,-0.12,9.74,-0.00,-0.03,-0.06,1720171274129
-0.60,-0.11,9.72,-0.01,-0.03,-0.06,1720171274132
-0.63,-0.15,9.73,-0.01,-0.03,-0.06,1720171274135
-0.68,-0.18,9.74,-0.01,-0.03,-0.05,1720171274138
-0.72,-0.18,9.76,-0.01,-0.03,-0.05,1720171274141
-0.72,-0.15,9.81,-0.01,-0.04,-0.04,1720171274144
-0.75,-0.16,9.81,-0.01,-0.04,-0.04,1720171274147
-0.76,-0.19,9.84,-0.01,-0.04,-0.03,1720171274150
-0.74,-0.19,9.84,-0.01,-0.04,-0.02,1720171274153
-0.73,-0.19,9.86,-0.00,-0.04,-0.02,1720171274156
-0.71,-0.20,9.84,-0.00,-0.04,-0.01,1720171274159
-0.67,-0.21,9.82,0.00,-0.04,-0.01,1720171274161
-0.62,-0.21,9.78,0.00,-0.04,0.00,1720171274164
-0.57,-0.19,9.80,0.00,-0.05,0.00,1720171274167
-0.49,-0.17,9.79,0.00,-0.04,0.01,1720171274170
-0.40,-0.15,9.75,-0.00,-0.04,0.01,1720171274173
-0.33,-0.14,9.75,-0.00,-0.04,0.01,1720171274176
-0.29,-0.16,9.75,-0.01,-0.04,0.01,1720171274179
-0.26,-0.14,9.78,-0.01,-0.04,0.01,1720171274182
-0.24,-0.12,9.80,-0.01,-0.04,0.01,1720171274185
-0.19,-0.10,9.83,-0.01,-0.04,0.01,1720171274188
-0.17,-0.11,9.86,-0.01,-0.04,0.00,1720171274191
-0.13,-0.15,9.85,-0.01,-0.04,-0.00,1720171274193
-0.11,-0.16,9.88,-0.01,-0.04,-0.01,1720171274196
-0.09,-0.16,9.87,-0.01,-0.04,-0.01,1720171274199
-0.09,-0.16,9.87,-0.01,-0.04,-0.02,1720171274202
-0.09,-0.15,9.84,-0.01,-0.04,-0.03,1720171274205
-0.12,-0.16,9.84,-0.00,-0.04,-0.03,1720171274208
-0.14,-0.15,9.79,-0.00,-0.04,-0.03,1720171274211
-0.14,-0.15,9.74,-0.00,-0.04,-0.04,1720171274214
-0.16,-0.13,9.77,-0.00,-0.04,-0.04,1720171274217
-0.21,-0.14,9.78,-0.00,-0.03,-0.04,1720171274220
-0.24,-0.14,9.80,-0.00,-0.04,-0.04,1720171274223
-0.27,-0.16,9.78,-0.00,-0.03,-0.04,1720171274225
-0.27,-0.21,9.77,-0.01,-0.03,-0.04,1720171274228
-0.29,-0.21,9.79,-0.01,-0.03,-0.04,1720171274231
-0.31,-0.22,9.80,-0.01,-0.03,-0.04,1720171274234
-0.32,-0.23,9.84,-0.01,-0.03,-0.04,1720171274237
-0.32,-0.23,9.84,-0.01,-0.03,-0.03,1720171274240
-0.31,-0.22,9.84,-0.01,-0.03,-0.03,1720171274243
-0.31,-0.21,9.83,-0.00,-0.03,-0.02,1720171274246
-0.29,-0.21,9.85,-0.00,-0.03,-0.02,1720171274249
-0.26,-0.19,9.83,-0.00,-0.03,-0.02,1720171274252
-0.23,-0.20,9.76,-0.00,-0.03,-0.02,1720171274255
-0.23,-0.22,9.75,-0.00,-0.03,-0.02,1720171274257
-0.21,-0.20,9.76,-0.00,-0.03,-0.02,1720171274260
-0.15,-0.20,9.75,-0.01,-0.03,-0.01,1720171274263
-0.14,-0.20,9.74,-0.01,-0.03,-0.01,1720171274266
-0.12,-0.20,9.78,-0.01,-0.03,-0.01,1720171274269
-0.13,-0.22,9.82,-0.01,-0.03,-0.01,1720171274272
-0.11,-0.23,9.91,-0.01,-0.03,-0.01,1720171274275
-0.10,-0.24,9.92,-0.01,-0.03,-0.01,1720171274278
-0.09,-0.24,9.92,-0.01,-0.02,-0.01,1720171274281
-0.07,-0.26,9.95,-0.01,-0.02,-0.01,1720171274284
-0.03,-0.25,9.96,-0.01,-0.02,-0.01,1720171274287
-0.03,-0.24,9.95,-0.00,-0.02,-0.01,1720171274289
-0.00,-0.23,9.93,-0.00,-0.02,-0.01,1720171274292
0.00,-0.20,9.89,0.00,-0.02,-0.01,1720171274295
0.00,-0.19,9.86,0.00,-0.02,-0.02,1720171274298
0.02,-0.16,9.78,0.01,-0.02,-0.02,1720171274301
0.03,-0.12,9.71,0.00,-0.02,-0.02,1720171274304
0.02,-0.12,9.67,0.00,-0.02,-0.02,1720171274307
0.02,-0.11,9.65,0.00,-0.02,-0.02,1720171274310
0.01,-0.11,9.62,-0.00,-0.01,-0.03,1720171274313
0.00,-0.12,9.63,-0.01,-0.01,-0.03,1720171274316
-0.02,-0.13,9.66,-0.01,-0.01,-0.04,1720171274318
-0.02,-0.13,9.69,-0.01,-0.01,-0.04,1720171274321
-0.06,-0.12,9.73,-0.01,-0.01,-0.05,1720171274324
-0.10,-0.15,9.77,-0.02,-0.01,-0.05,1720171274327
-0.15,-0.14,9.84,-0.01,-0.00,-0.06,1720171274330
-0.20,-0.15,9.91,-0.01,-0.00,-0.06,1720171274333
-0.23,-0.15,9.91,-0.01,-0.00,-0.06,1720171274336
-0.31,-0.16,9.96,-0.01,-0.00,-0.07,1720171274339
-0.35,-0.16,9.95,-0.01,-0.01,-0.07,1720171274342
-0.37,-0.15,9.94,-0.01,-0.00,-0.07,1720171274345
-0.42,-0.18,9.90,-0.00,-0.00,-0.06,1720171274348
-0.44,-0.18,9.88,-0.00,-0.00,-0.06,1720171274350
-0.47,-0.15,9.85,-0.00,-0.00,-0.06,1720171274353
-0.49,-0.14,9.84,-0.00,-0.00,-0.06,1720171274356
-0.53,-0.13,9.78,-0.00,-0.00,-0.06,1720171274359
-0.53,-0.13,9.78,-0.00,-0.00,-0.05,1720171274362
-0.59,-0.15,9.73,-0.00,-0.00,-0.05,1720171274365
-0.61,-0.14,9.70,-0.00,-0.00,-0.05,1720171274368
-0.64,-0.13,9.71,-0.00,-0.00,-0.04,1720171274371
-0.62,-0.13,9.73,-0.01,-0.01,-0.04,1720171274374
-0.60,-0.13,9.73,-0.01,-0.01,-0.04,1720171274377
-0.62,-0.11,9.73,-0.01,-0.01,-0.03,1720171274380
-0.60,-0.10,9.75,-0.01,-0.01,-0.03,1720171274383
-0.58,-0.11,9.74,-0.01,-0.01,-0.03,1720171274386
-0.55,-0.11,9.77,-0.01,-0.01,-0.02,1720171274388
-0.55,-0.10,9.77,-0.01,-0.01,-0.02,1720171274391
-0.53,-0.12,9.79,-0.01,-0.01,-0.01,1720171274394
-0.50,-0.13,9.83,-0.01,-0.01,-0.01,1720171274397
-0.44,-0.13,9.85,-0.01,-0.01,-0.01,1720171274400
-0.41,-0.11,9.88,-0.01,-0.02,-0.00,1720171274403
-0.38,-0.09,9.84,-0.01,-0.01,-0.00,1720171274406
-0.34,-0.09,9.85,-0.01,-0.01,-0.00,1720171274409
-0.30,-0.12,9.86,-0.01,-0.01,-0.00,1720171274412
-0.27,-0.11,9.87,-0.01,-0.01,-0.00,1720171274415
-0.21,-0.11,9.85,-0.00,-0.01,-0.00,1720171274418
-0.18,-0.07,9.87,-0.00,-0.01,-0.00,1720171274420
-0.14,-0.10,9.84,-0.00,-0.01,-0.00,1720171274423
-0.14,-0.09,9.82,-0.00,-0.01,-0.00,1720171274426
-0.14,-0.08,9.84,-0.00,-0.01,-0.01,1720171274429
-0.14,-0.06,9.85,-0.00,-0.01,-0.01,1720171274432
-0.16,-0.05,9.81,-0.00,-0.01,-0.01,1720171274435
-0.14,-0.05,9.80,-0.00,-0.01,-0.02,1720171274438
-0.15,-0.08,9.76,-0.00,-0.01,-0.02,1720171274441
-0.16,-0.08,9.74,-0.01,-0.01,-0.02,1720171274444
-0.15,-0.09,9.79,-0.01,-0.01,-0.03,1720171274447
-0.19,-0.10,9.80,-0.01,-0.01,-0.03,1720171274449
-0.21,-0.11,9.81,-0.01,-0.01,-0.03,1720171274452
-0.23,-0.14,9.78,-0.01,-0.01,-0.03,1720171274455
-0.24,-0.16,9.79,-0.01,-0.01,-0.03,1720171274458
-0.25,-0.15,9.79,-0.01,-0.01,-0.03,1720171274461
-0.23,-0.15,9.80,-0.01,-0.01,-0.03,1720171274464
-0.23,-0.14,9.83,-0.01,-0.01,-0.03,1720171274467
-0.23,-0.14,9.84,-0.01,-0.01,-0.03,1720171274470
-0.18,-0.14,9.86,-0.01,-0.00,-0.03,1720171274473
-0.19,-0.13,9.84,-0.01,-0.00,-0.02,1720171274476
-0.21,-0.12,9.83,-0.00,-0.00,-0.02,1720171274479
-0.19,-0.15,9.81,-0.00,-0.00,-0.02,1720171274481
-0.16,-0.17,9.81,-0.00,-0.00,-0.02,1720171274484
-0.15,-0.16,9.79,-0.00,-0.00,-0.02,1720171274487
-0.14,-0.17,9.76,-0.00,-0.00,-0.02,1720171274490
-0.11,-0.19,9.75,-0.00,0.00,-0.02,1720171274493
-0.09,-0.17,9.74,-0.00,0.00,-0.03,1720171274496
-0.08,-0.15,9.77,-0.00,0.00,-0.03,1720171274499
-0.07,-0.15,9.78,-0.00,0.00,-0.03,1720171274502
-0.08,-0.14,9.73,-0.00,0.00,-0.03,1720171274505
-0.10,-0.14,9.72,-0.01,0.00,-0.03,1720171274508
-0.12,-0.14,9.75,-0.01,0.00,-0.03,1720171274511
-0.13,-0.15,9.74,-0.01,0.00,-0.04,1720171274513
-0.15,-0.16,9.77,-0.01,0.00,-0.04,1720171274516
-0.20,-0.16,9.76,-0.01,0.00,-0.04,1720171274519
-0.19,-0.21,9.77,-0.01,0.00,-0.04,1720171274522
-0.22,-0.23,9.79,-0.01,0.01,-0.04,1720171274525
-0.23,-0.20,9.84,-0.01,0.01,-0.03,1720171274528
-0.27,-0.20,9.84,-0.01,0.01,-0.03,1720171274531
-0.31,-0.22,9.87,-0.01,0.01,-0.03,1720171274534
-0.28,-0.22,9.92,-0.01,0.01,-0.03,1720171274537
-0.29,-0.21,9.90,-0.01,0.01,-0.03,1720171274540
-0.30,-0.20,9.90,-0.01,0.01,-0.03,1720171274543
-0.31,-0.19,9.89,-0.00,0.01,-0.03,1720171274545
-0.33,-0.18,9.86,-0.00,0.01,-0.03,1720171274548
-0.33,-0.21,9.87,-0.00,0.01,-0.03,1720171274551
-0.34,-0.21,9.82,0.00,0.01,-0.03,1720171274554
-0.35,-0.21,9.80,-0.00,0.01,-0.03,1720171274557
-0.34,-0.21,9.75,-0.00,0.01,-0.03,1720171274560
-0.33,-0.21,9.72,-0.00,0.01,-0.03,1720171274563
-0.33,-0.20,9.70,-0.00,0.01,-0.03,1720171274566
-0.31,-0.17,9.71,-0.01,0.01,-0.03,1720171274569
-0.33,-0.12,9.74,-0.01,0.01,-0.04,1720171274572
-0.34,-0.13,9.75,-0.01,0.01,-0.04,1720171274575
-0.35,-0.13,9.76,-0.01,0.01,-0.04,1720171274577
-0.37,-0.16,9.75,-0.01,0.01,-0.04,1720171274580
-0.40,-0.16,9.77,-0.01,0.01,-0.04,1720171274583
-0.41,-0.17,9.82,-0.01,0.01,-0.04,1720171274586
-0.41,-0.19,9.84,-0.01,0.01,-0.04,1720171274589
-0.44,-0.23,9.84,-0.01,0.01,-0.04,1720171274592
-0.44,-0.22,9.84,-0.01,0.01,-0.04,1720171274595
-0.44,-0.22,9.83,-0.01,0.01,-0.04,1720171274598
-0.47,-0.22,9.87,-0.01,0.01,-0.04,1720171274601
-0.49,-0.20,9.88,-0.00,0.01,-0.04,1720171274604
-0.49,-0.18,9.86,-0.00,0.01,-0.03,1720171274607
-0.51,-0.16,9.87,-0.00,0.01,-0.03,1720171274609
-0.51,-0.18,9.85,-0.00,0.01,-0.03,1720171274612
-0.50,-0.18,9.88,-0.00,0.01,-0.03,1720171274615
-0.45,-0.15,9.86,-0.00,0.01,-0.03,1720171274618
-0.44,-0.16,9.84,-0.00,0.01,-0.02,1720171274621
-0.44,-0.15,9.81,-0.00,0.01,-0.02,1720171274624
-0.43,-0.14,9.77,-0.00,0.01,-0.02,1720171274627
-0.42,-0.13,9.75,-0.00,0.01,-0.02,1720171274630
-0.38,-0.13,9.78,-0.00,0.01,-0.01,1720171274633
-0.37,-0.13,9.78,-0.00,0.00,-0.01,1720171274636
-0.36,-0.15,9.76,-0.00,0.00,-0.01,1720171274639
-0.35,-0.14,9.78,-0.00,0.00,-0.01,1720171274641
-0.29,-0.13,9.77,-0.01,0.00,-0.01,1720171274644
-0.28,-0.12,9.78,-0.01,0.00,-0.01,1720171274647
-0.27,-0.11,9.78,-0.01,0.00,-0.01,1720171274650
-0.25,-0.09,9.81,-0.01,0.00,-0.01,1720171274653
-0.25,-0.10,9.82,-0.01,0.00,-0.01,1720171274656
-0.27,-0.11,9.82,-0.01,0.00,-0.01,1720171274659
-0.27,-0.10,9.84,-0.01,0.01,-0.01,1720171274662
-0.25,-0.11,9.84,-0.01,0.01,-0.01,1720171274665
-0.25,-0.12,9.84,-0.01,0.01,-0.02,1720171274668
-0.23,-0.11,9.82,-0.01,0.01,-0.02,1720171274671
-0.21,-0.10,9.82,-0.00,0.01,-0.02,1720171274673
-0.20,-0.09,9.82,-0.00,0.01,-0.03,1720171274676
-0.22,-0.10,9.84,-0.00,0.01,-0.03,1720171274679
-0.23,-0.10,9.79,-0.00,0.01,-0.03,1720171274682
-0.23,-0.11,9.79,-0.00,0.01,-0.03,1720171274685
-0.23,-0.09,9.79,-0.00,0.01,-0.03,1720171274688
-0.23,-0.06,9.78,-0.00,0.01,-0.04,1720171274691
-0.24,-0.08,9.74,-0.00,0.01,-0.04,1720171274694
-0.26,-0.11,9.75,-0.00,0.01,-0.04,1720171274697
-0.29,-0.11,9.75,-0.00,0.01,-0.04,1720171274700
-0.28,-0.11,9.73,-0.00,0.01,-0.04,1720171274702
-0.32,-0.11,9.73,-0.01,0.01,-0.04,1720171274705
-0.32,-0.12,9.74,-0.01,0.01,-0.04,1720171274708
-0.34,-0.11,9.77,-0.01,0.01,-0.04,1720171274711
-0.38,-0.15,9.83,-0.01,0.01,-0.04,1720171274714
-0.40,-0.16,9.80,-0.01,0.01,-0.04,1720171274717
-0.38,-0.16,9.82,-0.01,0.01,-0.04,1720171274720
-0.41,-0.17,9.83,-0.01,0.01,-0.04,1720171274723
-0.43,-0.17,9.84,-0.01,0.01,-0.03,1720171274726
-0.41,-0.18,9.84,-0.01,0.01,-0.03,1720171274729
-0.44,-0.18,9.87,-0.01,0.01,-0.03,1720171274732
-0.43,-0.20,9.83,-0.01,0.01,-0.03,1720171274734
-0.45,-0.19,9.85,-0.00,0.01,-0.02,1720171274737
-0.45,-0.18,9.87,-0.00,0.01,-0.02,1720171274740
-0.42,-0.18,9.84,-0.00,0.01,-0.02,1720171274743
-0.42,-0.20,9.79,-0.00,0.01,-0.02,1720171274746
-0.39,-0.18,9.77,-0.00,0.01,-0.02,1720171274749
-0.36,-0.14,9.78,-0.00,0.01,-0.02,1720171274752
-0.34,-0.13,9.76,-0.00,0.01,-0.02,1720171274755
-0.33,-0.13,9.76,-0.00,0.01,-0.02,1720171274758
-0.33,-0.12,9.79,-0.00,0.01,-0.02,1720171274761
-0.30,-0.11,9.77,-0.00,0.01,-0.02,1720171274764
-0.30,-0.13,9.76,-0.01,0.01,-0.02,1720171274766
-0.27,-0.13,9.73,-0.01,0.01,-0.03,1720171274769
-0.25,-0.13,9.74,-0.01,0.01,-0.03,1720171274772
-0.28,-0.13,9.80,-0.01,0.01,-0.03,1720171274775
-0.29,-0.13,9.82,-0.01,0.01,-0.04,1720171274778
-0.31,-0.14,9.83,-0.01,0.01,-0.04,1720171274781
-0.31,-0.17,9.81,-0.01,0.01,-0.04,1720171274784
-0.32,-0.19,9.84,-0.01,0.01,-0.04,1720171274787
-0.34,-0.19,9.85,-0.01,0.01,-0.04,1720171274790
-0.35,-0.18,9.91,-0.01,0.01,-0.04,1720171274793
-0.39,-0.19,9.86,-0.01,0.01,-0.04,1720171274796
-0.42,-0.20,9.89,-0.01,0.01,-0.04,1720171274798
-0.46,-0.21,9.87,-0.01,0.01,-0.04,1720171274801
-0.45,-0.21,9.88,-0.01,0.01,-0.04,1720171274804
-0.47,-0.21,9.86,-0.01,0.01,-0.04,1720171274807
-0.48,-0.19,9.86,-0.00,0.01,-0.04,1720171274810
-0.50,-0.20,9.85,-0.00,0.01,-0.04,1720171274813
-0.51,-0.22,9.84,-0.00,0.01,-0.04,1720171274816
-0.54,-0.23,9.82,-0.00,0.01,-0.04,1720171274819
-0.57,-0.25,9.77,-0.00,0.01,-0.03,1720171274822
-0.60,-0.25,9.73,-0.00,0.01,-0.03,1720171274825
-0.62,-0.25,9.71,-0.00,0.01,-0.03,1720171274828
-0.60,-0.26,9.77,-0.00,0.01,-0.03,1720171274830
-0.58,-0.26,9.74,-0.00,0.01,-0.03,1720171274833
-0.57,-0.28,9.73,-0.01,0.00,-0.03,1720171274836
-0.56,-0.28,9.74,-0.01,0.00,-0.02,1720171274839
-0.54,-0.25,9.78,-0.01,0.00,-0.02,1720171274842
-0.52,-0.26,9.80,-0.01,0.00,-0.02,1720171274845
-0.49,-0.27,9.78,-0.01,0.00,-0.01,1720171274848
-0.46,-0.25,9.81,-0.01,0.00,-0.01,1720171274851
-0.43,-0.24,9.81,-0.01,0.00,-0.01,1720171274854
-0.39,-0.24,9.84,-0.01,0.00,-0.01,1720171274857
-0.36,-0.22,9.87,-0.01,0.00,-0.01,1720171274860
-0.33,-0.23,9.86,-0.00,0.00,-0.01,1720171274863
-0.31,-0.25,9.82,-0.00,0.00,-0.01,1720171274866
-0.28,-0.23,9.84,-0.00,0.00,-0.01,1720171274868
-0.23,-0.22,9.84,-0.00,0.00,-0.01,1720171274871
-0.22,-0.23,9.82,-0.00,0.00,-0.01,1720171274874
-0.20,-0.21,9.86,-0.01,0.00,-0.01,1720171274877
-0.17,-0.21,9.86,-0.01,0.00,-0.02,1720171274880
-0.13,-0.20,9.86,-0.01,0.00,-0.02,1720171274883
-0.14,-0.19,9.89,-0.01,0.00,-0.02,1720171274886
-0.12,-0.19,9.89,-0.01,0.00,-0.02,1720171274889
-0.11,-0.20,9.89,-0.01,0.00,-0.02,1720171274892
-0.12,-0.19,9.89,-0.01,0.01,-0.02,1720171274895
-0.11,-0.18,9.88,-0.01,0.01,-0.02,1720171274897
-0.12,-0.17,9.89,-0.01,0.01,-0.02,1720171274900
-0.11,-0.19,9.85,-0.00,0.01,-0.02,1720171274903
-0.11,-0.18,9.82,-0.00,0.01,-0.02,1720171274906
-0.10,-0.17,9.81,-0.00,0.01,-0.02,1720171274909
-0.08,-0.18,9.82,-0.00,0.01,-0.02,1720171274912
-0.06,-0.15,9.84,-0.00,0.01,-0.02,1720171274915
-0.05,-0.14,9.81,-0.00,0.02,-0.02,1720171274918
-0.03,-0.13,9.82,-0.01,0.02,-0.02,1720171274921
-0.02,-0.12,9.82,-0.01,0.02,-0.02,1720171274924
-0.05,-0.11,9.79,-0.01,0.02,-0.03,1720171274927
-0.06,-0.11,9.78,-0.01,0.02,-0.03,1720171274929
-0.06,-0.11,9.84,-0.01,0.02,-0.03,1720171274932
-0.08,-0.10,9.88,-0.01,0.02,-0.03,1720171274935
-0.08,-0.12,9.88,-0.01,0.02,-0.03,1720171274938
-0.06,-0.12,9.87,-0.01,0.02,-0.04,1720171274941
-0.09,-0.11,9.86,-0.00,0.03,-0.04,1720171274944
-0.11,-0.10,9.82,-0.00,0.02,-0.04,1720171274947
-0.14,-0.11,9.80,-0.00,0.02,-0.04,1720171274950
-0.16,-0.12,9.82,-0.00,0.03,-0.04,1720171274953
-0.17,-0.12,9.80,-0.00,0.03,-0.05,1720171274956
-0.20,-0.11,9.76,-0.00,0.03,-0.05,1720171274959
-0.23,-0.09,9.76,-0.00,0.03,-0.05,1720171274961
-0.29,-0.08,9.74,-0.00,0.03,-0.05,1720171274964
-0.34,-0.11,9.73,-0.01,0.03,-0.06,1720171274967
-0.38,-0.11,9.70,-0.01,0.03,-0.06,1720171274970
-0.41,-0.10,9.70,-0.01,0.03,-0.06,1720171274973
-0.47,-0.10,9.71,-0.01,0.03,-0.06,1720171274976
-0.50,-0.11,9.77,-0.01,0.03,-0.06,1720171274979
-0.55,-0.11,9.81,-0.01,0.03,-0.06,1720171274982
-0.57,-0.12,9.81,-0.01,0.03,-0.06,1720171274985
-0.61,-0.11,9.82,-0.01,0.03,-0.06,1720171274988
-0.65,-0.15,9.81,-0.01,0.03,-0.05,1720171274990
-0.69,-0.17,9.82,-0.00,0.03,-0.05,1720171274993
-0.70,-0.16,9.84,-0.00,0.03,-0.05,1720171274996
-0.72,-0.15,9.84,-0.00,0.02,-0.04,1720171274999
-0.73,-0.14,9.82,-0.00,0.02,-0.04,1720171275002
-0.74,-0.14,9.80,-0.00,0.02,-0.03,1720171275005
-0.73,-0.12,9.80,-0.00,0.02,-0.03,1720171275008
-0.73,-0.13,9.76,-0.00,0.02,-0.02,1720171275011
-0.67,-0.12,9.78,-0.00,0.02,-0.02,1720171275014
-0.65,-0.10,9.77,-0.01,0.02,-0.01,1720171275017
-0.65,-0.09,9.73,-0.01,0.02,-0.01,1720171275020
-0.61,-0.10,9.73,-0.01,0.02,-0.01,1720171275022
-0.58,-0.12,9.77,-0.01,0.02,-0.00,1720171275025
-0.52,-0.11,9.77,-0.01,0.02,-0.00,1720171275028
-0.47,-0.10,9.81,-0.01,0.01,-0.00,1720171275031
-0.42,-0.10,9.80,-0.01,0.01,-0.00,1720171275034
-0.38,-0.09,9.79,-0.01,0.01,-0.01,1720171275037
-0.36,-0.12,9.81,-0.01,0.01,-0.01,1720171275040
-0.38,-0.14,9.77,-0.01,0.01,-0.01,1720171275043
-0.41,-0.15,9.77,-0.01,0.01,-0.01,1720171275046
-0.41,-0.16,9.83,-0.01,0.01,-0.01,1720171275049
-0.40,-0.14,9.85,-0.01,0.01,-0.01,1720171275052
-0.35,-0.16,9.92,-0.01,0.01,-0.02,1720171275054
-0.37,-0.17,9.88,-0.01,0.01,-0.02,1720171275057
-0.38,-0.18,9.91,-0.01,0.01,-0.02,1720171275060
-0.37,-0.18,9.93,-0.01,0.01,-0.03,1720171275063
-0.36,-0.16,9.93,-0.00,0.02,-0.03,1720171275066
-0.39,-0.17,9.90,-0.00,0.02,-0.03,1720171275069
-0.42,-0.19,9.86,0.00,0.02,-0.03,1720171275072
-0.42,-0.22,9.82,0.00,0.01,-0.03,1720171275075
-0.42,-0.23,9.78,0.00,0.01,-0.03,1720171275078
-0.45,-0.24,9.74,0.00,0.02,-0.03,1720171275081
-0.45,-0.23,9.74,-0.00,0.01,-0.03,1720171275084
-0.45,-0.23,9.70,-0.00,0.01,-0.03,1720171275086
-0.46,-0.22,9.69,-0.01,0.01,-0.03,1720171275089
-0.47,-0.22,9.70,-0.01,0.02,-0.03,1720171275092
-0.47,-0.23,9.73,-0.01,0.02,-0.03,1720171275095
-0.46,-0.25,9.74,-0.01,0.02,-0.03,1720171275098
-0.47,-0.25,9.80,-0.01,0.01,-0.03,1720171275101
-0.49,-0.27,9.84,-0.01,0.01,-0.03,1720171275104
-0.48,-0.26,9.89,-0.01,0.01,-0.03,1720171275107
-0.48,-0.24,9.90,-0.01,0.01,-0.03,1720171275110
-0.49,-0.25,9.93,-0.01,0.01,-0.03,1720171275113
-0.48,-0.26,9.94,-0.01,0.01,-0.03,1720171275115
-0.48,-0.26,9.96,-0.01,0.01,-0.03,1720171275118
-0.45,-0.26,9.95,-0.00,0.01,-0.03,1720171275121
-0.45,-0.26,9.96,-0.00,0.01,-0.03,1720171275124
-0.44,-0.25,9.92,0.00,0.01,-0.03,1720171275127
-0.44,-0.22,9.87,0.00,0.01,-0.03,1720171275130
-0.43,-0.23,9.83,-0.00,0.01,-0.03,1720171275133
-0.43,-0.21,9.76,0.00,0.01,-0.03,1720171275136
-0.44,-0.21,9.73,0.00,0.01,-0.03,1720171275139
-0.43,-0.21,9.75,-0.00,0.01,-0.03,1720171275142
-0.42,-0.20,9.70,-0.00,0.01,-0.03,1720171275145
-0.41,-0.18,9.72,-0.00,0.01,-0.03,1720171275147
-0.41,-0.18,9.71,-0.00,0.01,-0.03,1720171275150
-0.42,-0.18,9.68,-0.00,0.01,-0.04,1720171275153
-0.42,-0.17,9.64,-0.00,0.01,-0.04,1720171275156
-0.45,-0.19,9.63,-0.00,0.01,-0.04,1720171275159
-0.45,-0.19,9.66,-0.01,0.01,-0.04,1720171275162
-0.45,-0.20,9.71,-0.01,0.01,-0.03,1720171275165
-0.47,-0.23,9.72,-0.01,0.01,-0.03,1720171275168
-0.48,-0.23,9.76,-0.01,0.01,-0.03,1720171275171
-0.52,-0.22,9.80,-0.01,0.01,-0.03,1720171275174
-0.50,-0.22,9.87,-0.02,0.01,-0.03,1720171275177
-0.51,-0.20,9.91,-0.01,0.01,-0.03,1720171275179
-0.52,-0.19,9.94,-0.01,0.01,-0.02,1720171275182
-0.51,-0.19,9.94,-0.01,0.01,-0.02,1720171275185
-0.51,-0.18,9.98,-0.01,0.01,-0.02,1720171275188
-0.49,-0.18,9.92,0.00,0.01,-0.02,1720171275196
-0.49,-0.18,9.84,0.00,0.00,-0.01,1720171275199
-0.47,-0.18,9.78,0.00,0.00,-0.01,1720171275202
-0.46,-0.14,9.70,0.00,0.01,-0.01,1720171275205
-0.45,-0.12,9.65,0.00,0.01,-0.01,1720171275208
-0.41,-0.09,9.67,-0.00,0.01,-0.01,1720171275210
-0.38,-0.10,9.70,-0.00,0.01,-0.01,1720171275213
-0.37,-0.10,9.68,-0.01,0.01,-0.01,1720171275216
-0.36,-0.08,9.68,-0.01,0.01,-0.01,1720171275219
-0.35,-0.10,9.73,-0.01,0.01,-0.01,1720171275222
-0.33,-0.08,9.78,-0.01,0.01,-0.02,1720171275225
-0.30,-0.06,9.81,-0.01,0.01,-0.02,1720171275228
-0.29,-0.08,9.82,-0.01,0.01,-0.02,1720171275231
-0.27,-0.09,9.83,-0.01,0.01,-0.02,1720171275234
-0.28,-0.09,9.80,-0.01,0.01,-0.03,1720171275237
-0.31,-0.08,9.81,-0.00,0.01,-0.03,1720171275239
-0.31,-0.07,9.82,-0.00,0.01,-0.03,1720171275242
-0.31,-0.07,9.84,-0.00,0.01,-0.04,1720171275245
-0.31,-0.07,9.80,-0.00,0.01,-0.04,1720171275248
-0.34,-0.04,9.80,-0.01,0.01,-0.04,1720171275251
-0.37,-0.02,9.82,-0.01,0.01,-0.04,1720171275254
-0.43,-0.07,9.82,-0.01,0.01,-0.05,1720171275257
-0.46,-0.04,9.82,-0.01,0.01,-0.05,1720171275260
-0.48,-0.06,9.79,-0.01,0.01,-0.05,1720171275263
-0.54,-0.08,9.80,-0.01,0.01,-0.04,1720171275266
-0.55,-0.08,9.82,-0.01,0.01,-0.04,1720171275269
-0.56,-0.09,9.84,-0.01,0.01,-0.04,1720171275271
-0.58,-0.10,9.82,-0.01,0.01,-0.04,1720171275274
-0.57,-0.11,9.80,-0.00,0.01,-0.03,1720171275277
-0.61,-0.11,9.80,-0.00,0.01,-0.03,1720171275280
-0.60,-0.11,9.80,-0.00,0.01,-0.02,1720171275283
-0.58,-0.11,9.75,-0.00,0.01,-0.02,1720171275286
-0.54,-0.07,9.74,-0.00,0.01,-0.01,1720171275289
-0.54,-0.08,9.79,-0.00,0.01,-0.00,1720171275292
-0.50,-0.09,9.80,-0.00,0.01,-0.00,1720171275295
-0.48,-0.09,9.81,-0.01,0.01,0.00,1720171275298
-0.41,-0.09,9.82,-0.01,0.01,0.01,1720171275301
-0.33,-0.11,9.82,-0.01,0.01,0.01,1720171275303
-0.29,-0.08,9.85,-0.01,0.01,0.01,1720171275306
-0.27,-0.08,9.84,-0.01,0.01,0.01,1720171275309
-0.19,-0.05,9.83,-0.01,0.01,0.01,1720171275312
-0.17,-0.07,9.86,-0.00,0.01,0.00,1720171275315
-0.11,-0.06,9.85,-0.00,0.01,0.00,1720171275318
-0.07,-0.06,9.81,-0.00,0.01,-0.01,1720171275321
-0.07,-0.09,9.80,-0.00,0.01,-0.01,1720171275324
-0.05,-0.05,9.82,-0.00,0.01,-0.01,1720171275327
-0.00,-0.04,9.83,-0.00,0.01,-0.02,1720171275330
0.01,-0.06,9.82,-0.01,0.01,-0.02,1720171275332
0.02,-0.05,9.82,-0.01,0.02,-0.03,1720171275335
-0.01,-0.07,9.83,-0.01,0.02,-0.03,1720171275338
-0.03,-0.06,9.80,-0.01,0.02,-0.04,1720171275341
-0.06,-0.05,9.82,-0.01,0.02,-0.05,1720171275344
-0.10,-0.06,9.81,-0.01,0.02,-0.05,1720171275347
-0.15,-0.05,9.83,-0.01,0.02,-0.06,1720171275350
-0.22,-0.07,9.83,-0.01,0.02,-0.06,1720171275353
-0.26,-0.06,9.81,-0.01,0.03,-0.07,1720171275356
-0.31,-0.06,9.79,-0.01,0.03,-0.07,1720171275359
-0.36,-0.08,9.77,-0.01,0.02,-0.07,1720171275362
-0.43,-0.12,9.75,-0.01,0.02,-0.08,1720171275364
-0.50,-0.11,9.78,-0.01,0.02,-0.08,1720171275367
-0.58,-0.11,9.80,-0.01,0.03,-0.07,1720171275370
-0.62,-0.11,9.78,-0.01,0.03,-0.07,1720171275373
-0.65,-0.12,9.77,-0.01,0.03,-0.07,1720171275376
-0.69,-0.13,9.78,-0.01,0.03,-0.06,1720171275379
-0.76,-0.14,9.82,-0.01,0.02,-0.06,1720171275382
-0.80,-0.17,9.78,-0.01,0.02,-0.05,1720171275385
-0.81,-0.18,9.78,-0.01,0.02,-0.05,1720171275388
-0.81,-0.17,9.82,-0.01,0.02,-0.04,1720171275391
-0.84,-0.15,9.82,-0.01,0.02,-0.03,1720171275394
-0.80,-0.15,9.80,-0.00,0.02,-0.03,1720171275396
-0.80,-0.15,9.76,-0.00,0.02,-0.02,1720171275399
-0.78,-0.14,9.78,-0.00,0.02,-0.02,1720171275402
-0.75,-0.13,9.77,-0.00,0.02,-0.01,1720171275405
-0.73,-0.12,9.77,-0.00,0.02,-0.01,1720171275408
-0.71,-0.11,9.79,-0.00,0.02,-0.01,1720171275411
-0.69,-0.11,9.80,-0.00,0.01,-0.01,1720171275414
-0.68,-0.11,9.80,-0.01,0.01,-0.01,1720171275417
-0.64,-0.08,9.81,-0.00,0.01,-0.01,1720171275420
-0.61,-0.11,9.84,-0.00,0.01,-0.01,1720171275423
-0.59,-0.12,9.83,-0.00,0.01,-0.01,1720171275426
-0.57,-0.11,9.80,-0.00,0.01,-0.01,1720171275428
-0.55,-0.12,9.81,-0.00,0.01,-0.01,1720171275431
-0.51,-0.13,9.81,-0.00,0.01,-0.01,1720171275434
-0.52,-0.14,9.81,-0.00,0.01,-0.01,1720171275437
-0.49,-0.12,9.79,-0.00,0.01,-0.01,1720171275440
-0.45,-0.14,9.78,-0.00,0.01,-0.01,1720171275443
-0.44,-0.12,9.76,-0.00,0.01,-0.02,1720171275446
-0.45,-0.12,9.75,-0.00,0.01,-0.02,1720171275449
-0.46,-0.14,9.73,-0.00,0.01,-0.02,1720171275452
-0.47,-0.13,9.73,-0.01,0.01,-0.02,1720171275455
-0.46,-0.13,9.72,-0.01,0.01,-0.02,1720171275458
-0.45,-0.11,9.76,-0.01,0.01,-0.03,1720171275460
-0.46,-0.12,9.80,-0.01,0.01,-0.03,1720171275463
-0.43,-0.12,9.81,-0.01,0.01,-0.03,1720171275466
-0.46,-0.14,9.84,-0.01,0.01,-0.03,1720171275469
-0.49,-0.14,9.86,-0.01,0.01,-0.03,1720171275472
-0.48,-0.16,9.86,-0.01,0.01,-0.03,1720171275475
-0.49,-0.17,9.92,-0.01,0.01,-0.03,1720171275478
-0.49,-0.17,9.92,-0.01,0.01,-0.03,1720171275481
-0.50,-0.19,9.88,-0.01,0.01,-0.03,1720171275484
-0.52,-0.20,9.89,-0.01,0.01,-0.03,1720171275487
-0.50,-0.21,9.89,-0.00,0.01,-0.03,1720171275489
-0.50,-0.21,9.87,-0.00,0.01,-0.03,1720171275492
-0.51,-0.20,9.85,0.00,0.01,-0.03,1720171275495
-0.51,-0.16,9.82,0.00,0.01,-0.03,1720171275498
-0.52,-0.15,9.78,0.00,0.01,-0.03,1720171275501
-0.54,-0.14,9.76,0.00,0.01,-0.03,1720171275504
-0.53,-0.12,9.72,0.00,0.01,-0.03,1720171275507
-0.54,-0.14,9.69,0.00,0.01,-0.03,1720171275510
-0.56,-0.13,9.65,-0.00,0.01,-0.03,1720171275513
-0.54,-0.13,9.65,-0.00,0.01,-0.03,1720171275516
-0.54,-0.13,9.67,-0.01,0.01,-0.02,1720171275519
-0.53,-0.14,9.68,-0.01,0.01,-0.02,1720171275521
-0.53,-0.13,9.72,-0.01,0.01,-0.02,1720171275524
-0.53,-0.15,9.75,-0.01,0.00,-0.02,1720171275527
-0.51,-0.17,9.78,-0.01,0.00,-0.02,1720171275530
-0.49,-0.15,9.81,-0.01,0.00,-0.02,1720171275533
-0.48,-0.16,9.85,-0.01,0.00,-0.02,1720171275536
-0.48,-0.17,9.85,-0.01,0.00,-0.02,1720171275539
-0.44,-0.15,9.89,-0.01,0.00,-0.02,1720171275542
-0.43,-0.16,9.89,-0.01,0.00,-0.02,1720171275545
-0.44,-0.17,9.83,-0.01,0.01,-0.02,1720171275548
-0.42,-0.17,9.84,-0.01,0.01,-0.02,1720171275551
-0.40,-0.19,9.86,-0.00,0.00,-0.02,1720171275553
-0.39,-0.17,9.87,-0.00,0.01,-0.02,1720171275556
-0.37,-0.16,9.89,-0.00,0.01,-0.02,1720171275559
-0.38,-0.16,9.85,-0.00,0.00,-0.03,1720171275562
-0.37,-0.16,9.82,-0.00,0.01,-0.03,1720171275565
-0.37,-0.14,9.83,-0.00,0.01,-0.03,1720171275568
-0.35,-0.15,9.84,-0.00,0.01,-0.03,1720171275571
-0.35,-0.16,9.86,-0.00,0.01,-0.03,1720171275574
-0.37,-0.17,9.83,-0.00,0.01,-0.03,1720171275577
-0.40,-0.15,9.76,-0.00,0.01,-0.03,1720171275580
-0.42,-0.16,9.76,-0.00,0.01,-0.03,1720171275583
-0.36,-0.10,9.87,-0.00,0.01,-0.01,1720171276295
-0.33,-0.09,9.88,-0.00,0.01,-0.01,1720171276298
-0.31,-0.08,9.85,-0.00,0.01,-0.01,1720171276301
-0.29,-0.07,9.87,-0.00,0.01,-0.01,1720171276304
-0.26,-0.08,9.85,-0.00,0.01,-0.02,1720171276307
-0.25,-0.08,9.81,-0.00,0.02,-0.02,1720171276310
-0.27,-0.07,9.80,-0.00,0.02,-0.03,1720171276313
-0.26,-0.08,9.77,-0.00,0.02,-0.03,1720171276315
-0.27,-0.06,9.79,-0.00,0.02,-0.04,1720171276318
-0.26,-0.07,9.76,-0.00,0.02,-0.04,1720171276321
-0.28,-0.09,9.73,-0.00,0.02,-0.04,1720171276324
-0.31,-0.09,9.73,-0.00,0.02,-0.04,1720171276327
-0.33,-0.09,9.77,-0.00,0.02,-0.05,1720171276330
-0.37,-0.11,9.77,-0.00,0.02,-0.06,1720171276333
-0.42,-0.11,9.72,-0.00,0.02,-0.06,1720171276336
-0.45,-0.11,9.71,-0.00,0.03,-0.06,1720171276339
-0.50,-0.13,9.70,-0.00,0.03,-0.07,1720171276342
-0.53,-0.13,9.73,-0.00,0.03,-0.07,1720171276345
-0.60,-0.14,9.72,-0.01,0.03,-0.07,1720171276347
-0.68,-0.17,9.75,-0.01,0.03,-0.07,1720171276350
-0.73,-0.16,9.75,-0.01,0.03,-0.07,1720171276353
-0.79,-0.19,9.73,-0.01,0.03,-0.07,1720171276356
-0.80,-0.23,9.83,-0.01,0.03,-0.06,1720171276359
-0.82,-0.23,9.85,-0.01,0.03,-0.06,1720171276362
-0.85,-0.24,9.87,-0.01,0.02,-0.06,1720171276365
-0.91,-0.23,9.91,-0.01,0.02,-0.05,1720171276368
-0.94,-0.24,9.95,-0.01,0.02,-0.04,1720171276371
-0.96,-0.24,9.88,-0.01,0.02,-0.04,1720171276374
-0.95,-0.24,9.90,-0.01,0.02,-0.03,1720171276377
-0.92,-0.24,9.86,-0.00,0.02,-0.02,1720171276380
-0.87,-0.23,9.85,-0.00,0.02,-0.02,1720171276382
-0.88,-0.23,9.85,0.00,0.02,-0.02,1720171276385
-0.86,-0.21,9.83,0.00,0.02,-0.01,1720171276388
-0.84,-0.19,9.79,0.00,0.01,-0.01,1720171276391
-0.79,-0.21,9.76,0.00,0.01,-0.00,1720171276394
-0.75,-0.21,9.74,-0.00,0.01,-0.00,1720171276397
-0.72,-0.19,9.74,-0.00,0.01,0.00,1720171276400
-0.68,-0.17,9.75,-0.00,0.01,-0.00,1720171276403
-0.66,-0.18,9.78,-0.01,0.01,-0.00,1720171276406
-0.62,-0.19,9.76,-0.01,0.01,-0.00,1720171276409
-0.59,-0.19,9.77,-0.01,0.01,-0.00,1720171276412
-0.57,-0.16,9.75,-0.01,0.01,-0.01,1720171276414
-0.55,-0.17,9.76,-0.01,0.01,-0.01,1720171276417
-0.50,-0.17,9.81,-0.01,0.01,-0.01,1720171276420
-0.48,-0.18,9.79,-0.01,0.01,-0.02,1720171276423
-0.46,-0.16,9.81,-0.01,0.01,-0.02,1720171276426
-0.46,-0.15,9.79,-0.01,0.01,-0.02,1720171276429
-0.46,-0.16,9.80,-0.01,0.01,-0.03,1720171276432
-0.46,-0.16,9.83,-0.01,0.02,-0.03,1720171276435
-0.49,-0.18,9.84,-0.00,0.02,-0.04,1720171276438
-0.49,-0.16,9.84,-0.01,0.02,-0.04,1720171276441
-0.51,-0.16,9.84,-0.00,0.02,-0.04,1720171276444
-0.57,-0.15,9.83,-0.01,0.02,-0.05,1720171276446
-0.60,-0.16,9.85,-0.01,0.02,-0.05,1720171276449
-0.62,-0.14,9.82,-0.01,0.02,-0.05,1720171276452
-0.67,-0.14,9.79,-0.01,0.02,-0.05,1720171276455
-0.67,-0.16,9.79,-0.01,0.02,-0.05,1720171276458
-0.69,-0.16,9.80,-0.01,0.02,-0.05,1720171276461
-0.69,-0.16,9.78,-0.01,0.02,-0.05,1720171276464
-0.73,-0.17,9.78,-0.01,0.01,-0.05,1720171276467
-0.77,-0.19,9.78,-0.00,0.01,-0.05,1720171276470
-0.79,-0.20,9.76,-0.00,0.01,-0.04,1720171276473
-0.79,-0.19,9.71,-0.00,0.01,-0.04,1720171276475
-0.80,-0.23,9.68,-0.00,0.01,-0.03,1720171276478
-0.82,-0.22,9.69,-0.00,0.01,-0.03,1720171276481
-0.83,-0.21,9.68,-0.00,0.01,-0.03,1720171276484
-0.82,-0.21,9.67,-0.00,0.01,-0.02,1720171276487
-0.79,-0.21,9.65,-0.01,0.01,-0.02,1720171276490
-0.79,-0.20,9.69,-0.01,0.01,-0.02,1720171276493
-0.79,-0.18,9.70,-0.01,0.01,-0.01,1720171276496
-0.77,-0.18,9.73,-0.01,0.01,-0.01,1720171276499
-0.76,-0.19,9.76,-0.01,0.01,-0.01,1720171276502
-0.72,-0.15,9.81,-0.01,0.01,-0.01,1720171276505
-0.69,-0.15,9.86,-0.01,0.01,-0.01,1720171276507
-0.68,-0.15,9.85,-0.01,0.01,-0.00,1720171276510
-0.66,-0.16,9.87,-0.01,0.01,-0.00,1720171276513
-0.62,-0.16,9.89,-0.01,0.00,-0.00,1720171276516
-0.57,-0.16,9.88,-0.00,0.00,0.00,1720171276519
-0.55,-0.16,9.87,-0.00,0.00,0.00,1720171276522
-0.52,-0.18,9.86,-0.00,0.01,-0.00,1720171276525
-0.50,-0.18,9.83,-0.00,0.01,-0.00,1720171276528
-0.46,-0.20,9.76,-0.00,0.01,-0.00,1720171276531
-0.45,-0.18,9.74,-0.00,0.01,-0.00,1720171276534
-0.43,-0.15,9.74,-0.00,0.01,-0.01,1720171276537
-0.41,-0.12,9.76,-0.01,0.01,-0.01,1720171276539
-0.40,-0.11,9.76,-0.01,0.01,-0.01,1720171276542
-0.38,-0.09,9.75,-0.01,0.01,-0.02,1720171276545
-0.36,-0.09,9.80,-0.01,0.01,-0.02,1720171276548
-0.38,-0.09,9.79,-0.01,0.01,-0.02,1720171276551
-0.38,-0.10,9.81,-0.01,0.01,-0.03,1720171276554
-0.36,-0.10,9.79,-0.01,0.01,-0.03,1720171276557
-0.37,-0.09,9.82,-0.01,0.01,-0.03,1720171276560
-0.39,-0.09,9.87,-0.01,0.01,-0.04,1720171276563
-0.42,-0.09,9.87,-0.01,0.02,-0.04,1720171276566
-0.44,-0.10,9.87,-0.01,0.02,-0.04,1720171276569
-0.46,-0.10,9.88,-0.01,0.02,-0.04,1720171276571
-0.49,-0.11,9.90,-0.01,0.02,-0.04,1720171276574
-0.52,-0.10,9.90,-0.01,0.02,-0.05,1720171276577
-0.54,-0.10,9.93,-0.01,0.02,-0.04,1720171276580
-0.55,-0.09,9.91,-0.00,0.02,-0.04,1720171276583
-0.59,-0.10,9.85,-0.00,0.02,-0.04,1720171276586
-0.61,-0.10,9.83,-0.00,0.02,-0.04,1720171276589
-0.59,-0.08,9.82,-0.00,0.02,-0.04,1720171276592
-0.60,-0.10,9.80,-0.00,0.02,-0.04,1720171276595
-0.59,-0.09,9.79,-0.00,0.02,-0.04,1720171276598
-0.59,-0.09,9.74,-0.00,0.02,-0.03,1720171276600
-0.58,-0.07,9.73,-0.00,0.02,-0.03,1720171276603
-0.58,-0.05,9.73,-0.01,0.02,-0.03,1720171276606
-0.58,-0.06,9.76,-0.01,0.02,-0.03,1720171276609
-0.57,-0.06,9.76,-0.01,0.02,-0.03,1720171276612
-0.55,-0.07,9.78,-0.01,0.02,-0.03,1720171276615
-0.52,-0.02,9.75,-0.01,0.02,-0.02,1720171276618
-0.47,-0.04,9.77,-0.00,0.02,-0.02,1720171276621
-0.47,-0.05,9.74,-0.00,0.02,-0.02,1720171276624
-0.45,-0.03,9.73,-0.00,0.02,-0.02,1720171276627
-0.41,-0.00,9.69,-0.00,0.02,-0.02,1720171276630
-0.37,-0.01,9.72,-0.01,0.02,-0.02,1720171276632
-0.34,-0.02,9.73,-0.01,0.03,-0.03,1720171276635
-0.34,-0.01,9.72,-0.01,0.02,-0.03,1720171276638
-0.34,-0.03,9.73,-0.01,0.03,-0.03,1720171276641
-0.33,-0.02,9.76,-0.01,0.03,-0.03,1720171276644
-0.34,-0.01,9.78,-0.01,0.03,-0.04,1720171276647
-0.32,-0.02,9.84,-0.01,0.03,-0.04,1720171276650
-0.33,0.00,9.89,-0.01,0.03,-0.04,1720171276653
-0.34,-0.00,9.91,-0.01,0.03,-0.05,1720171276656
-0.39,0.00,9.92,-0.01,0.03,-0.05,1720171276659
-0.41,0.01,9.92,-0.01,0.03,-0.05,1720171276662
-0.43,0.02,9.95,-0.01,0.03,-0.05,1720171276664
-0.48,0.02,9.92,-0.00,0.03,-0.06,1720171276667
-0.51,0.04,9.89,-0.00,0.03,-0.05,1720171276670
-0.58,0.02,9.88,-0.00,0.03,-0.06,1720171276673
-0.63,0.02,9.83,-0.00,0.03,-0.06,1720171276676
-0.68,0.05,9.82,-0.01,0.03,-0.06,1720171276679
-0.72,0.05,9.80,-0.01,0.04,-0.06,1720171276682
-0.77,0.03,9.80,-0.01,0.04,-0.06,1720171276685
-0.82,0.03,9.81,-0.01,0.04,-0.06,1720171276688
-0.84,0.03,9.82,-0.01,0.04,-0.06,1720171276691
-0.88,0.03,9.87,-0.01,0.04,-0.06,1720171276694
-0.92,0.05,9.90,-0.01,0.04,-0.06,1720171276696
-0.94,0.03,9.86,-0.01,0.03,-0.06,1720171276699
-0.98,0.01,9.84,-0.00,0.03,-0.06,1720171276702
-1.02,0.03,9.87,0.00,0.03,-0.06,1720171276705
-1.04,0.06,9.80,0.00,0.03,-0.06,1720171276708
-1.06,0.08,9.74,0.00,0.03,-0.06,1720171276711
-1.09,0.10,9.68,0.00,0.02,-0.06,1720171276714
-1.13,0.09,9.67,0.00,0.02,-0.06,1720171276717
-1.14,0.08,9.64,-0.00,0.02,-0.06,1720171276720
-1.15,0.07,9.62,-0.00,0.02,-0.06,1720171276723
-1.15,0.09,9.65,-0.01,0.02,-0.06,1720171276725
-1.17,0.11,9.64,-0.01,0.02,-0.06,1720171276728
-1.21,0.13,9.68,-0.02,0.02,-0.06,1720171276731
-1.24,0.13,9.76,-0.02,0.02,-0.05,1720171276734
-1.25,0.12,9.80,-0.02,0.02,-0.05,1720171276737
-1.26,0.13,9.81,-0.01,0.01,-0.05,1720171276740
-1.29,0.11,9.88,-0.01,0.01,-0.05,1720171276743
-1.29,0.10,9.91,-0.01,0.01,-0.04,1720171276746
-1.30,0.10,9.90,-0.01,0.01,-0.04,1720171276749
-1.31,0.11,9.87,-0.01,0.00,-0.04,1720171276752
-1.32,0.10,9.89,-0.01,0.00,-0.03,1720171276755
-1.32,0.11,9.92,-0.01,-0.00,-0.03,1720171276757
-1.31,0.12,9.92,-0.00,-0.00,-0.02,1720171276760
-1.29,0.14,9.92,-0.00,-0.01,-0.02,1720171276763
-1.29,0.15,9.88,-0.00,-0.01,-0.01,1720171276766
-1.29,0.16,9.84,0.00,-0.01,-0.01,1720171276769
-1.28,0.17,9.85,0.00,-0.01,-0.00,1720171276772
-1.26,0.17,9.82,0.00,-0.01,0.00,1720171276775
-1.21,0.19,9.79,0.00,-0.02,0.01,1720171276778
-1.15,0.19,9.77,0.00,-0.02,0.01,1720171276781
-1.08,0.21,9.75,0.00,-0.02,0.01,1720171276784
-1.04,0.20,9.74,0.00,-0.02,0.01,1720171276787
-0.99,0.18,9.75,0.00,-0.02,0.02,1720171276789
-0.94,0.19,9.70,-0.00,-0.03,0.02,1720171276792
-0.89,0.19,9.69,-0.00,-0.02,0.02,1720171276795
-0.84,0.20,9.70,-0.01,-0.03,0.01,1720171276798
-0.83,0.17,9.70,-0.01,-0.03,0.01,1720171276801
-0.77,0.18,9.78,-0.01,-0.03,0.01,1720171276804
-0.72,0.15,9.82,-0.01,-0.03,0.00,1720171276807
-0.68,0.16,9.85,-0.01,-0.03,-0.00,1720171276810
-0.67,0.18,9.86,-0.01,-0.03,-0.00,1720171276813
-0.64,0.20,9.86,-0.01,-0.03,-0.01,1720171276816
-0.61,0.19,9.85,-0.00,-0.03,-0.02,1720171276819
-0.65,0.23,9.87,-0.00,-0.03,-0.03,1720171276821
-0.65,0.22,9.86,0.00,-0.03,-0.03,1720171276824
-0.66,0.21,9.85,0.00,-0.03,-0.04,1720171276827
-0.68,0.19,9.83,0.00,-0.03,-0.04,1720171276830
-0.73,0.17,9.79,0.00,-0.03,-0.05,1720171276833
-0.76,0.16,9.77,0.00,-0.03,-0.05,1720171276836
-0.78,0.15,9.73,0.00,-0.03,-0.05,1720171276839
-0.83,0.11,9.72,-0.00,-0.03,-0.05,1720171276842
-0.84,0.10,9.74,-0.00,-0.03,-0.05,1720171276845
-0.88,0.07,9.73,-0.01,-0.03,-0.05,1720171276848
-0.91,0.04,9.73,-0.01,-0.03,-0.05,1720171276851
-0.91,0.02,9.73,-0.01,-0.03,-0.04,1720171276853
-0.92,0.00,9.78,-0.01,-0.03,-0.03,1720171276856
-0.94,-0.01,9.85,-0.01,-0.03,-0.02,1720171276859
-0.91,-0.01,9.89,-0.01,-0.03,-0.02,1720171276862
-0.91,0.02,9.93,-0.01,-0.03,-0.01,1720171276865
-0.85,0.04,9.91,0.00,-0.03,-0.01,1720171276868
-0.80,0.04,9.88,0.00,-0.04,-0.00,1720171276871
-0.75,0.03,9.85,0.01,-0.04,0.00,1720171276874
-0.68,0.04,9.81,0.01,-0.04,0.01,1720171276877
-0.65,0.05,9.74,0.01,-0.04,0.02,1720171276880
-0.60,0.08,9.65,0.01,-0.04,0.02,1720171276883
-0.53,0.09,9.60,0.01,-0.04,0.02,1720171276886
-0.47,0.08,9.56,0.01,-0.04,0.01,1720171276889
-0.38,0.05,9.54,-0.00,-0.04,0.01,1720171276891
-0.34,0.03,9.57,-0.01,-0.04,0.01,1720171276894
-0.32,0.03,9.65,-0.01,-0.04,0.01,1720171276897
-0.29,0.05,9.73,-0.02,-0.03,0.01,1720171276900
-0.27,0.06,9.82,-0.02,-0.03,0.00,1720171276903
-0.20,0.05,9.91,-0.02,-0.03,-0.00,1720171276906
-0.19,0.04,10.02,-0.02,-0.03,-0.01,1720171276909
-0.19,0.05,10.06,-0.01,-0.03,-0.01,1720171276912
-0.20,0.04,10.06,-0.01,-0.03,-0.01,1720171276915
-0.20,0.04,10.04,-0.00,-0.03,-0.02,1720171276918
-0.19,0.01,10.01,0.00,-0.03,-0.02,1720171276921
-0.20,0.02,9.92,0.01,-0.03,-0.03,1720171276923
-0.23,0.02,9.86,0.01,-0.03,-0.03,1720171276926
-0.25,0.03,9.76,0.01,-0.03,-0.04,1720171276929
-0.29,0.01,9.68,0.01,-0.03,-0.04,1720171276932
-0.35,-0.01,9.64,0.01,-0.02,-0.05,1720171276935
-0.37,-0.05,9.62,0.00,-0.02,-0.05,1720171276938
-0.42,-0.04,9.62,-0.00,-0.02,-0.05,1720171276941
-0.46,-0.04,9.62,-0.01,-0.01,-0.05,1720171276944
-0.52,-0.05,9.69,-0.01,-0.01,-0.04,1720171276947
-0.55,-0.04,9.77,-0.01,-0.01,-0.04,1720171276950
-0.57,-0.04,9.82,-0.01,-0.01,-0.03,1720171276952
-0.57,-0.05,9.90,-0.01,-0.01,-0.03,1720171276955
-0.58,-0.06,9.94,-0.01,-0.01,-0.02,1720171276958
-0.59,-0.08,9.95,-0.01,-0.01,-0.02,1720171276961
-0.57,-0.09,9.91,-0.00,-0.01,-0.01,1720171276964
-0.56,-0.10,9.93,-0.00,-0.01,-0.01,1720171276967
-0.53,-0.14,9.92,0.00,-0.01,-0.00,1720171276970
-0.48,-0.15,9.87,0.01,-0.01,0.00,1720171276973
-0.40,-0.21,9.82,0.00,-0.01,0.00,1720171276976
-0.35,-0.17,9.80,0.00,-0.01,0.01,1720171276979
-0.31,-0.12,9.76,0.00,-0.01,0.01,1720171276982
-0.26,-0.10,9.79,0.00,-0.01,0.01,1720171276984
-0.20,-0.12,9.81,-0.00,-0.01,0.01,1720171276987
-0.13,-0.14,9.84,-0.00,-0.01,0.02,1720171276990
-0.07,-0.11,9.86,-0.00,-0.00,0.02,1720171276993
-0.01,-0.09,9.86,-0.00,0.00,0.02,1720171276996
0.05,-0.11,9.86,0.00,0.01,0.02,1720171276999
0.12,-0.09,9.82,0.00,0.01,0.01,1720171277002
0.19,-0.08,9.82,0.01,0.01,0.00,1720171277005
0.24,-0.06,9.78,0.01,0.01,-0.00,1720171277008
0.27,-0.05,9.75,0.01,0.01,-0.01,1720171277011
0.29,-0.06,9.69,0.01,0.01,-0.01,1720171277014
0.28,-0.02,9.64,0.00,0.01,-0.01,1720171277016
0.30,0.00,9.68,0.00,0.02,-0.02,1720171277019
0.30,0.00,9.70,-0.00,0.02,-0.03,1720171277022
0.28,-0.04,9.71,-0.01,0.03,-0.04,1720171277025
0.21,-0.10,9.75,-0.01,0.03,-0.05,1720171277028
0.13,-0.10,9.77,-0.01,0.03,-0.06,1720171277031
0.10,-0.10,9.85,-0.02,0.03,-0.06,1720171277034
0.05,-0.12,9.96,-0.02,0.03,-0.06,1720171277037
0.00,-0.16,10.05,-0.02,0.03,-0.06,1720171277040
-0.06,-0.15,10.07,-0.01,0.03,-0.06,1720171277043
-0.14,-0.13,10.11,-0.01,0.04,-0.06,1720171277045
-0.18,-0.16,10.08,-0.00,0.05,-0.06,1720171277048
-0.21,-0.21,10.03,0.00,0.05,-0.06,1720171277051
-0.24,-0.24,9.99,0.01,0.05,-0.06,1720171277054
-0.30,-0.23,9.89,0.01,0.05,-0.06,1720171277057
-0.36,-0.21,9.81,0.02,0.05,-0.06,1720171277060
-0.42,-0.16,9.73,0.02,0.05,-0.05,1720171277063
-0.43,-0.15,9.67,0.01,0.05,-0.05,1720171277066
-0.41,-0.17,9.65,0.01,0.05,-0.04,1720171277069
-0.40,-0.17,9.62,0.01,0.05,-0.03,1720171277072
-0.42,-0.12,9.61,0.00,0.06,-0.03,1720171277075
-0.43,-0.12,9.60,-0.00,0.06,-0.02,1720171277077
-0.46,-0.11,9.62,-0.01,0.06,-0.02,1720171277080
-0.48,-0.11,9.64,-0.01,0.06,-0.03,1720171277083
-0.50,-0.10,9.69,-0.01,0.06,-0.03,1720171277086
-0.49,-0.10,9.76,-0.01,0.06,-0.04,1720171277089
-0.50,-0.09,9.86,-0.01,0.06,-0.04,1720171277092
-0.50,-0.14,9.96,-0.01,0.05,-0.04,1720171277095
-0.52,-0.16,10.00,-0.01,0.06,-0.04,1720171277098
-0.58,-0.15,9.99,-0.01,0.05,-0.04,1720171277101
-0.62,-0.16,10.01,-0.00,0.06,-0.05,1720171277104
-0.59,-0.18,9.94,0.00,0.06,-0.05,1720171277107
-0.61,-0.20,9.92,0.00,0.06,-0.04,1720171277109
-0.65,-0.21,9.87,0.01,0.06,-0.04,1720171277112
-0.65,-0.11,9.78,0.01,0.06,-0.04,1720171277115
-0.65,-0.08,9.78,0.01,0.06,-0.04,1720171277118
-0.65,0.00,9.73,0.01,0.06,-0.03,1720171277121
-0.67,-0.04,9.65,0.00,0.06,-0.03,1720171277124
-0.69,-0.05,9.61,-0.00,0.06,-0.03,1720171277127
-0.74,-0.05,9.54,-0.00,0.06,-0.04,1720171277130
-0.76,-0.03,9.50,-0.00,0.06,-0.05,1720171277133
-0.79,-0.01,9.50,-0.00,0.06,-0.05,1720171277136
-0.82,-0.01,9.48,-0.01,0.06,-0.05,1720171277138
-0.88,-0.01,9.48,-0.01,0.05,-0.06,1720171277141
-0.88,-0.05,9.54,-0.00,0.05,-0.06,1720171277144
-0.91,-0.01,9.56,-0.00,0.05,-0.06,1720171277147
-0.92,-0.03,9.58,-0.00,0.05,-0.05,1720171277150
-0.94,0.02,9.60,-0.01,0.05,-0.05,1720171277153
-0.99,-0.00,9.65,-0.01,0.06,-0.05,1720171277156
-1.02,0.04,9.65,-0.01,0.06,-0.06,1720171277159
-1.04,0.04,9.73,-0.02,0.06,-0.07,1720171277162
-1.08,0.02,9.80,-0.02,0.05,-0.07,1720171277165
-1.10,-0.03,9.85,-0.02,0.05,-0.07,1720171277168
-1.11,-0.10,9.89,-0.02,0.05,-0.07,1720171277170
-1.11,-0.15,9.98,-0.02,0.05,-0.07,1720171277173
-1.13,-0.12,10.09,-0.02,0.05,-0.07,1720171277176
-1.20,-0.09,10.13,-0.01,0.05,-0.07,1720171277179
-1.24,-0.07,10.09,-0.01,0.05,-0.08,1720171277182
-1.27,-0.11,10.06,-0.00,0.05,-0.09,1720171277185
-1.31,-0.13,9.99,0.00,0.04,-0.09,1720171277188
-1.38,-0.08,9.91,0.01,0.04,-0.09,1720171277191
-1.53,0.12,9.73,0.02,0.02,-0.10,1720171277198
-1.56,0.09,9.60,0.01,0.02,-0.11,1720171277201
-1.66,0.03,9.48,0.01,0.02,-0.11,1720171277204
-1.79,0.04,9.41,0.01,0.02,-0.11,1720171277207
-1.88,0.04,9.36,0.00,0.01,-0.11,1720171277210
-1.96,-0.01,9.34,-0.01,0.01,-0.10,1720171277212
-2.02,-0.11,9.40,-0.02,0.01,-0.09,1720171277215
-2.05,-0.15,9.46,-0.03,0.01,-0.08,1720171277218
-2.07,-0.15,9.59,-0.03,0.01,-0.06,1720171277221
-2.09,-0.16,9.67,-0.03,0.01,-0.05,1720171277224
-2.05,-0.18,9.81,-0.03,0.01,-0.03,1720171277227
-1.98,-0.21,9.92,-0.03,0.01,-0.01,1720171277230
-1.92,-0.18,10.03,-0.03,0.01,0.02,1720171277233
-1.81,-0.11,10.09,-0.02,0.01,0.03,1720171277236
-1.72,-0.08,10.12,-0.02,0.00,0.04,1720171277239
-1.62,-0.06,10.16,-0.01,-0.01,0.06,1720171277241
-1.47,-0.11,10.19,-0.00,-0.02,0.07,1720171277244
-1.30,-0.14,10.13,0.01,-0.03,0.08,1720171277247
-1.12,-0.09,10.06,0.02,-0.03,0.09,1720171277250
-0.93,-0.05,9.96,0.02,-0.04,0.10,1720171277253
-0.80,-0.03,9.92,0.02,-0.04,0.11,1720171277256
-0.61,-0.04,9.81,0.02,-0.04,0.11,1720171277259
-0.45,0.00,9.70,0.02,-0.03,0.10,1720171277262
-0.26,0.05,9.60,0.02,-0.03,0.09,1720171277265
-0.10,0.06,9.57,0.01,-0.03,0.09,1720171277268
0.02,0.08,9.53,-0.00,-0.03,0.08,1720171277271
0.13,0.10,9.53,-0.01,-0.03,0.07,1720171277273
0.19,0.12,9.61,-0.01,-0.03,0.05,1720171277276
0.30,0.10,9.65,-0.01,-0.03,0.03,1720171277279
0.34,0.05,9.71,-0.01,-0.03,0.01,1720171277282
0.36,0.01,9.74,-0.01,-0.02,-0.00,1720171277285
0.36,-0.02,9.74,-0.01,-0.02,-0.01,1720171277288
0.34,-0.02,9.74,-0.01,-0.02,-0.01,1720171277291
0.32,-0.02,9.73,-0.00,-0.01,-0.03,1720171277294
0.27,0.01,9.74,-0.00,-0.01,-0.04,1720171277297
0.21,-0.01,9.76,-0.00,-0.00,-0.05,1720171277300
0.13,-0.06,9.74,-0.00,0.00,-0.06,1720171277303
0.05,-0.11,9.72,-0.01,0.00,-0.06,1720171277305
-0.03,-0.18,9.74,-0.01,0.01,-0.06,1720171277308
-0.10,-0.19,9.84,-0.02,0.01,-0.05,1720171277311
-0.17,-0.11,9.92,-0.02,0.01,-0.05,1720171277314
-0.24,-0.16,10.00,-0.02,0.02,-0.05,1720171277317
-0.24,-0.22,10.09,-0.02,0.02,-0.04,1720171277320
-0.25,-0.29,10.16,-0.02,0.02,-0.03,1720171277323
-0.24,-0.20,10.17,-0.01,0.02,-0.01,1720171277326
-0.23,-0.15,10.16,-0.00,0.02,-0.00,1720171277329
-0.17,-0.15,10.13,0.00,0.02,0.00,1720171277332
-0.12,-0.23,10.09,0.01,0.02,0.01,1720171277334
-0.04,-0.29,9.96,0.02,0.02,0.02,1720171277337
0.02,-0.20,9.81,0.02,0.03,0.02,1720171277340
0.10,-0.10,9.64,0.03,0.03,0.01,1720171277343
0.19,-0.13,9.54,0.02,0.03,0.01,1720171277346
0.27,-0.14,9.44,0.01,0.03,0.00,1720171277349
0.33,-0.17,9.38,0.00,0.04,-0.00,1720171277352
0.36,-0.11,9.38,-0.00,0.04,-0.01,1720171277355
0.38,-0.03,9.47,-0.01,0.05,-0.02,1720171277358
0.40,-0.10,9.55,-0.02,0.05,-0.04,1720171277361
0.38,-0.17,9.64,-0.03,0.05,-0.05,1720171277364
0.34,-0.17,9.75,-0.03,0.06,-0.07,1720171277366
0.23,-0.13,9.89,-0.03,0.06,-0.09,1720171277369
0.12,-0.11,9.97,-0.02,0.07,-0.11,1720171277372
0.01,-0.19,10.05,-0.02,0.07,-0.12,1720171277375
-0.10,-0.28,10.07,-0.01,0.07,-0.13,1720171277378
-0.26,-0.32,10.06,-0.00,0.07,-0.13,1720171277381
-0.40,-0.30,10.02,0.00,0.07,-0.14,1720171277384
-0.48,-0.30,9.95,0.01,0.07,-0.14,1720171277387
-0.63,-0.34,9.85,0.01,0.07,-0.14,1720171277390
-0.75,-0.40,9.79,0.00,0.07,-0.13,1720171277393
-0.86,-0.42,9.72,0.00,0.07,-0.12,1720171277396
-0.95,-0.38,9.70,0.00,0.07,-0.11,1720171277398
-1.03,-0.30,9.65,0.00,0.07,-0.10,1720171277401
-1.09,-0.32,9.68,-0.01,0.08,-0.08,1720171277404
-1.12,-0.34,9.69,-0.01,0.08,-0.07,1720171277407
-1.15,-0.36,9.73,-0.01,0.08,-0.05,1720171277410
-1.13,-0.34,9.73,-0.01,0.08,-0.03,1720171277413
-1.08,-0.32,9.76,-0.01,0.08,-0.01,1720171277416
-1.03,-0.34,9.78,-0.01,0.08,-0.00,1720171277419
-0.93,-0.37,9.83,-0.01,0.07,0.02,1720171277422
-0.86,-0.41,9.80,-0.01,0.07,0.03,1720171277425
-0.74,-0.35,9.79,-0.00,0.07,0.05,1720171277428
-0.63,-0.32,9.77,0.00,0.07,0.05,1720171277430
-0.48,-0.34,9.75,0.00,0.07,0.06,1720171277433
-0.31,-0.34,9.73,-0.00,0.07,0.07,1720171277436
-0.17,-0.32,9.73,-0.00,0.08,0.07,1720171277439
-0.06,-0.21,9.72,-0.00,0.08,0.06,1720171277442
0.05,-0.14,9.70,-0.00,0.08,0.05,1720171277445
0.15,-0.13,9.73,-0.01,0.08,0.04,1720171277448
0.23,-0.15,9.76,-0.01,0.08,0.04,1720171277451
0.27,-0.15,9.83,-0.02,0.09,0.03,1720171277454
0.30,-0.08,9.88,-0.02,0.09,0.01,1720171277457
0.31,-0.08,9.94,-0.02,0.09,-0.01,1720171277459
0.33,-0.14,9.97,-0.02,0.09,-0.03,1720171277462
0.30,-0.19,10.02,-0.02,0.10,-0.04,1720171277465
0.27,-0.20,10.05,-0.01,0.10,-0.05,1720171277468
0.23,-0.21,10.04,-0.01,0.11,-0.07,1720171277471
0.14,-0.22,9.97,-0.00,0.11,-0.08,1720171277474
0.03,-0.27,9.91,0.00,0.11,-0.09,1720171277477
-0.06,-0.26,9.84,0.00,0.11,-0.10,1720171277480
-0.12,-0.25,9.77,0.01,0.11,-0.10,1720171277483
-0.24,-0.22,9.74,0.01,0.12,-0.11,1720171277486
-0.35,-0.20,9.72,0.01,0.12,-0.12,1720171277489
-0.46,-0.26,9.67,0.00,0.12,-0.12,1720171277491
-0.59,-0.26,9.62,-0.00,0.12,-0.12,1720171277494
-0.72,-0.22,9.62,-0.01,0.12,-0.12,1720171277497
-0.84,-0.19,9.65,-0.01,0.12,-0.12,1720171277500
-0.91,-0.23,9.69,-0.01,0.12,-0.12,1720171277503
-1.00,-0.27,9.74,-0.02,0.12,-0.12,1720171277506
-1.12,-0.29,9.73,-0.02,0.12,-0.11,1720171277509
-1.23,-0.29,9.77,-0.02,0.12,-0.11,1720171277512
-1.27,-0.29,9.80,-0.02,0.12,-0.10,1720171277515
-1.31,-0.32,9.86,-0.02,0.12,-0.10,1720171277518
-1.37,-0.38,9.88,-0.02,0.12,-0.09,1720171277521
-1.45,-0.39,9.90,-0.02,0.12,-0.07,1720171277523
-1.47,-0.30,9.93,-0.01,0.12,-0.07,1720171277526
-1.47,-0.29,9.87,-0.01,0.12,-0.06,1720171277529
-1.47,-0.34,9.82,-0.01,0.12,-0.05,1720171277532
-1.47,-0.38,9.80,-0.01,0.11,-0.04,1720171277535
-1.49,-0.35,9.80,-0.01,0.11,-0.04,1720171277538
-1.51,-0.31,9.75,-0.00,0.11,-0.03,1720171277541
-1.47,-0.29,9.75,-0.00,0.11,-0.03,1720171277544
-1.45,-0.33,9.74,-0.00,0.11,-0.03,1720171277547
-1.45,-0.38,9.73,-0.01,0.10,-0.02,1720171277550
-1.42,-0.34,9.70,-0.00,0.10,-0.01,1720171277552
-1.44,-0.29,9.71,-0.00,0.10,-0.01,1720171277555
-1.40,-0.26,9.71,-0.00,0.10,-0.01,1720171277558
-1.38,-0.30,9.72,-0.00,0.09,-0.01,1720171277561
-1.35,-0.31,9.71,-0.00,0.09,-0.00,1720171277564
-1.33,-0.30,9.69,-0.00,0.09,-0.00,1720171277567
-1.29,-0.24,9.67,-0.00,0.09,-0.01,1720171277570
-1.25,-0.25,9.70,-0.00,0.09,-0.01,1720171277573
-1.22,-0.27,9.72,-0.01,0.08,-0.01,1720171277576
-1.22,-0.28,9.70,-0.01,0.08,-0.01,1720171277579
-1.21,-0.31,9.70,-0.01,0.08,-0.01,1720171277582
-1.18,-0.31,9.69,-0.01,0.08,-0.01,1720171277584
-1.15,-0.31,9.74,-0.01,0.08,-0.01,1720171277587
-1.13,-0.34,9.74,-0.01,0.08,-0.01,1720171277590
-1.08,-0.36,9.78,-0.01,0.08,-0.01,1720171277593
-1.05,-0.34,9.79,-0.02,0.08,-0.02,1720171277596
-1.04,-0.31,9.84,-0.01,0.08,-0.02,1720171277599
-1.03,-0.28,9.86,-0.01,0.08,-0.03,1720171277602
-1.02,-0.30,9.91,-0.01,0.08,-0.04,1720171277605
-1.04,-0.28,9.98,-0.01,0.08,-0.05,1720171277608
-1.03,-0.27,9.96,-0.01,0.08,-0.05,1720171277611
-1.07,-0.26,9.92,-0.00,0.08,-0.06,1720171277614
-1.14,-0.24,9.85,-0.00,0.07,-0.07,1720171277616
-1.24,-0.24,9.82,-0.00,0.07,-0.08,1720171277619
-1.32,-0.24,9.79,0.00,0.07,-0.08,1720171277622
-1.40,-0.22,9.72,0.00,0.07,-0.09,1720171277625
-1.47,-0.22,9.68,-0.00,0.06,-0.09,1720171277628
-1.54,-0.21,9.68,-0.00,0.06,-0.09,1720171277631
-1.62,-0.21,9.65,-0.01,0.06,-0.09,1720171277634
-1.70,-0.24,9.63,-0.01,0.06,-0.09,1720171277637
-1.75,-0.23,9.62,-0.01,0.06,-0.09,1720171277640
-1.78,-0.24,9.64,-0.01,0.06,-0.08,1720171277643
-1.85,-0.28,9.64,-0.01,0.05,-0.08,1720171277645
-1.90,-0.31,9.64,-0.01,0.05,-0.07,1720171277648
-1.92,-0.32,9.64,-0.01,0.05,-0.07,1720171277651
-1.92,-0.34,9.72,-0.01,0.05,-0.06,1720171277654
-1.92,-0.33,9.75,-0.01,0.05,-0.05,1720171277657
-1.92,-0.33,9.73,-0.01,0.05,-0.04,1720171277660
-1.91,-0.34,9.72,-0.01,0.04,-0.03,1720171277663
-1.90,-0.36,9.74,-0.01,0.04,-0.02,1720171277666
-1.87,-0.31,9.72,-0.01,0.04,-0.01,1720171277669
-1.83,-0.29,9.75,-0.01,0.03,-0.00,1720171277672
-1.76,-0.25,9.78,-0.01,0.03,0.01,1720171277675
-1.69,-0.22,9.80,-0.01,0.03,0.01,1720171277677
-1.64,-0.18,9.79,-0.01,0.02,0.02,1720171277680
-1.56,-0.16,9.78,-0.01,0.02,0.02,1720171277683
-1.51,-0.14,9.81,-0.01,0.01,0.03,1720171277686
-1.44,-0.11,9.84,-0.01,0.01,0.03,1720171277689
-1.35,-0.09,9.84,-0.01,0.01,0.03,1720171277692
-1.28,-0.11,9.83,-0.01,0.01,0.04,1720171277695
-1.18,-0.16,9.84,-0.01,0.01,0.04,1720171277698
-1.11,-0.19,9.82,-0.01,0.01,0.03,1720171277701
-1.02,-0.21,9.81,-0.01,0.01,0.03,1720171277704
-0.97,-0.22,9.85,-0.01,0.01,0.03,1720171277707
-0.92,-0.24,9.85,-0.01,0.01,0.03,1720171277709
-0.89,-0.28,9.89,-0.01,0.01,0.02,1720171277712
-0.84,-0.30,9.90,-0.01,0.01,0.01,1720171277715
-0.82,-0.26,9.84,-0.00,0.01,0.01,1720171277718
-0.78,-0.28,9.81,0.00,0.01,-0.00,1720171277721
-0.73,-0.24,9.77,0.00,0.01,-0.01,1720171277724
-0.73,-0.26,9.77,0.01,0.01,-0.02,1720171277727
-0.75,-0.20,9.73,0.01,0.01,-0.03,1720171277730
-0.76,-0.18,9.71,0.01,0.01,-0.04,1720171277733
-0.79,-0.14,9.66,0.01,0.01,-0.05,1720171277736
-0.85,-0.09,9.59,0.01,0.01,-0.06,1720171277738
-0.89,-0.08,9.54,0.00,0.01,-0.07,1720171277741
-0.94,-0.06,9.54,-0.00,0.01,-0.08,1720171277744
-1.02,-0.11,9.57,-0.01,0.01,-0.09,1720171277747
-1.09,-0.12,9.60,-0.01,0.01,-0.10,1720171277750
-1.19,-0.18,9.60,-0.02,0.01,-0.10,1720171277753
-1.29,-0.19,9.67,-0.03,0.01,-0.10,1720171277756
-1.39,-0.24,9.79,-0.03,0.01,-0.11,1720171277759
-1.48,-0.30,9.90,-0.03,0.01,-0.11,1720171277762
-1.56,-0.31,10.00,-0.02,0.01,-0.11,1720171277765
-1.63,-0.31,10.03,-0.02,0.01,-0.11,1720171277768
-1.73,-0.28,10.06,-0.02,0.01,-0.10,1720171277770
-1.79,-0.27,10.06,-0.01,0.00,-0.10,1720171277773
-1.89,-0.25,10.04,-0.01,0.00,-0.10,1720171277776
-1.94,-0.25,10.02,-0.00,-0.00,-0.10,1720171277779
-1.99,-0.25,9.92,0.00,-0.01,-0.10,1720171277782
-2.06,-0.23,9.83,0.01,-0.01,-0.10,1720171277785
-2.11,-0.20,9.74,0.01,-0.02,-0.09,1720171277788
-2.15,-0.17,9.69,0.01,-0.02,-0.09,1720171277791
-2.21,-0.14,9.60,0.01,-0.03,-0.08,1720171277794
-2.26,-0.16,9.54,0.01,-0.03,-0.08,1720171277797
-2.32,-0.14,9.50,0.01,-0.03,-0.08,1720171277800
-2.36,-0.11,9.49,0.00,-0.04,-0.08,1720171277802
-2.39,-0.07,9.48,-0.00,-0.04,-0.08,1720171277805
-2.40,-0.05,9.50,-0.01,-0.05,-0.07,1720171277808
-2.44,-0.06,9.53,-0.01,-0.05,-0.07,1720171277811
-2.45,-0.10,9.54,-0.01,-0.05,-0.07,1720171277814
-2.51,-0.11,9.60,-0.02,-0.06,-0.06,1720171277817
-2.53,-0.11,9.65,-0.02,-0.06,-0.06,1720171277820
-2.55,-0.15,9.72,-0.02,-0.06,-0.06,1720171277823
-2.58,-0.19,9.79,-0.02,-0.07,-0.06,1720171277826
-2.59,-0.22,9.82,-0.02,-0.07,-0.05,1720171277829
-2.59,-0.21,9.85,-0.02,-0.07,-0.05,1720171277831
-2.61,-0.18,9.86,-0.01,-0.08,-0.04,1720171277834
-2.60,-0.17,9.85,-0.01,-0.08,-0.04,1720171277837
-2.59,-0.17,9.82,-0.01,-0.09,-0.03,1720171277840
-2.58,-0.18,9.85,-0.01,-0.10,-0.02,1720171277843
-2.55,-0.18,9.84,0.00,-0.11,-0.02,1720171277846
-2.54,-0.14,9.84,0.00,-0.12,-0.02,1720171277849
-2.51,-0.12,9.77,0.01,-0.13,-0.01,1720171277852
-2.53,-0.12,9.77,0.01,-0.14,-0.01,1720171277855
-2.50,-0.11,9.68,0.01,-0.15,-0.00,1720171277858
-2.49,-0.05,9.67,0.01,-0.15,-0.00,1720171277861
-2.46,-0.04,9.60,0.01,-0.15,0.00,1720171277864
-2.39,-0.06,9.56,0.01,-0.16,0.01,1720171277866
-2.34,-0.09,9.51,0.00,-0.17,0.01,1720171277869
-2.32,-0.10,9.50,-0.00,-0.17,0.02,1720171277872
-2.24,-0.09,9.52,-0.00,-0.17,0.02,1720171277875
-2.18,-0.07,9.58,-0.01,-0.18,0.02,1720171277878
-2.12,-0.05,9.64,-0.01,-0.18,0.02,1720171277881
-2.05,-0.06,9.66,-0.01,-0.19,0.02,1720171277884
-1.98,-0.08,9.72,-0.01,-0.19,0.02,1720171277887
-1.94,-0.09,9.73,-0.01,-0.19,0.02,1720171277890
-1.91,-0.10,9.73,-0.01,-0.20,0.01,1720171277893
-1.87,-0.13,9.83,-0.00,-0.20,0.01,1720171277896
-1.82,-0.14,9.81,-0.00,-0.21,0.01,1720171277898
-1.78,-0.15,9.83,0.00,-0.22,0.01,1720171277901
-1.76,-0.15,9.82,0.01,-0.22,0.00,1720171277904
-1.73,-0.11,9.79,0.01,-0.22,0.00,1720171277907
-1.70,-0.08,9.76,0.01,-0.22,0.00,1720171277910
-1.68,-0.07,9.75,0.01,-0.23,-0.00,1720171277913
-1.68,-0.06,9.73,0.01,-0.23,-0.01,1720171277916
-1.67,-0.05,9.69,0.01,-0.23,-0.01,1720171277919
-1.68,-0.06,9.67,0.00,-0.23,-0.02,1720171277922
-1.67,-0.08,9.62,0.00,-0.24,-0.02,1720171277925
-1.66,-0.09,9.64,-0.00,-0.24,-0.02,1720171277928
-1.65,-0.11,9.64,-0.00,-0.24,-0.02,1720171277930
-1.66,-0.13,9.72,-0.00,-0.24,-0.02,1720171277933
-1.66,-0.15,9.72,-0.00,-0.25,-0.02,1720171277936
-1.67,-0.16,9.74,-0.00,-0.25,-0.02,1720171277939
-1.68,-0.18,9.72,-0.00,-0.25,-0.01,1720171277942
-1.65,-0.20,9.73,-0.00,-0.26,-0.01,1720171277945
-1.64,-0.20,9.70,0.00,-0.26,-0.00,1720171277948
-1.60,-0.16,9.67,0.00,-0.26,0.00,1720171277951
-1.56,-0.15,9.65,-0.00,-0.27,0.01,1720171277954
-1.52,-0.17,9.70,-0.00,-0.27,0.01,1720171277957
-1.49,-0.20,9.69,0.00,-0.27,0.01,1720171277960
-1.47,-0.23,9.73,0.00,-0.28,0.02,1720171277962
-1.41,-0.25,9.71,-0.00,-0.28,0.02,1720171277965
-1.33,-0.25,9.74,0.00,-0.28,0.02,1720171277968
-1.29,-0.25,9.76,0.00,-0.28,0.03,1720171277971
-1.23,-0.24,9.74,0.00,-0.28,0.04,1720171277974
-1.19,-0.22,9.75,0.00,-0.29,0.04,1720171277977
-1.13,-0.21,9.76,0.00,-0.29,0.04,1720171277980
-1.06,-0.19,9.77,0.01,-0.29,0.04,1720171277983
-0.99,-0.22,9.75,0.01,-0.29,0.04,1720171277986
-0.93,-0.22,9.71,0.01,-0.29,0.04,1720171277989
-0.88,-0.22,9.70,0.01,-0.30,0.03,1720171277992
-0.86,-0.19,9.66,0.00,-0.30,0.03,1720171277994
-0.80,-0.18,9.65,0.00,-0.30,0.02,1720171277997
-0.74,-0.22,9.69,0.00,-0.30,0.02,1720171278000
-0.73,-0.23,9.73,-0.00,-0.30,0.01,1720171278003
-0.71,-0.26,9.74,-0.00,-0.30,0.01,1720171278006
-0.70,-0.27,9.73,-0.00,-0.30,0.00,1720171278009
-0.68,-0.25,9.72,-0.00,-0.30,0.00,1720171278012
-0.67,-0.25,9.75,-0.00,-0.30,-0.00,1720171278015
-0.68,-0.26,9.81,-0.00,-0.30,-0.00,1720171278018
-0.68,-0.27,9.78,-0.00,-0.30,-0.01,1720171278021
-0.67,-0.27,9.74,0.00,-0.30,-0.01,1720171278023
-0.66,-0.30,9.75,0.00,-0.30,-0.01,1720171278026
-0.67,-0.30,9.73,0.00,-0.30,-0.01,1720171278029
-0.68,-0.28,9.71,0.01,-0.31,-0.01,1720171278032
-0.69,-0.29,9.71,0.01,-0.31,-0.01,1720171278035
-0.70,-0.30,9.72,0.00,-0.31,-0.01,1720171278038
-0.71,-0.31,9.69,0.00,-0.31,-0.01,1720171278041
-0.71,-0.32,9.68,0.00,-0.31,-0.01,1720171278044
-0.69,-0.32,9.65,0.00,-0.31,-0.01,1720171278047
-0.68,-0.31,9.66,0.00,-0.31,-0.00,1720171278050
-0.64,-0.29,9.67,-0.00,-0.31,0.00,1720171278053
-0.62,-0.28,9.71,-0.00,-0.31,0.01,1720171278055
-0.60,-0.27,9.71,-0.00,-0.31,0.01,1720171278058
-0.61,-0.27,9.71,-0.00,-0.31,0.01,1720171278061
-0.57,-0.26,9.73,-0.00,-0.31,0.00,1720171278064
-0.55,-0.26,9.74,-0.00,-0.31,0.00,1720171278067
-0.52,-0.24,9.74,0.00,-0.31,0.00,1720171278070
-0.50,-0.22,9.72,0.00,-0.31,0.00,1720171278073
-0.49,-0.24,9.74,0.00,-0.32,0.00,1720171278076
-0.47,-0.27,9.74,0.00,-0.32,0.00,1720171278079
-0.46,-0.23,9.73,0.00,-0.32,-0.00,1720171278082
-0.45,-0.25,9.72,0.00,-0.32,-0.00,1720171278085
-0.42,-0.27,9.73,0.00,-0.31,-0.00,1720171278087
-0.40,-0.27,9.71,0.00,-0.31,-0.01,1720171278090
-0.39,-0.25,9.73,0.00,-0.32,-0.01,1720171278093
-0.40,-0.23,9.76,-0.00,-0.32,-0.01,1720171278096
-0.40,-0.24,9.76,-0.00,-0.32,-0.01,1720171278099
-0.42,-0.24,9.77,-0.00,-0.32,-0.01,1720171278102
-0.39,-0.30,9.80,-0.00,-0.32,-0.02,1720171278105
-0.40,-0.36,9.81,-0.00,-0.31,-0.02,1720171278108
-0.41,-0.40,9.81,0.00,-0.32,-0.02,1720171278111
-0.42,-0.41,9.81,0.00,-0.32,-0.01,1720171278114
-0.41,-0.39,9.78,0.01,-0.32,-0.00,1720171278117
-0.40,-0.36,9.77,0.01,-0.32,0.00,1720171278119
-0.41,-0.36,9.70,0.01,-0.32,0.01,1720171278122
-0.39,-0.36,9.68,0.01,-0.32,0.02,1720171278125
-0.33,-0.34,9.66,0.01,-0.32,0.02,1720171278128
-0.28,-0.33,9.62,0.01,-0.32,0.03,1720171278131
-0.25,-0.31,9.59,0.01,-0.32,0.04,1720171278134
-0.17,-0.28,9.62,0.01,-0.32,0.05,1720171278137
-0.11,-0.27,9.58,0.00,-0.32,0.05,1720171278140
-0.04,-0.27,9.61,-0.00,-0.32,0.06,1720171278143
0.03,-0.26,9.63,-0.00,-0.32,0.06,1720171278146
0.11,-0.27,9.64,-0.01,-0.32,0.06,1720171278149
0.20,-0.27,9.75,-0.01,-0.32,0.07,1720171278151
0.29,-0.28,9.81,-0.01,-0.31,0.07,1720171278154
0.38,-0.31,9.84,-0.01,-0.31,0.08,1720171278157
0.46,-0.29,9.85,-0.01,-0.31,0.08,1720171278160
0.57,-0.29,9.95,-0.01,-0.31,0.07,1720171278163
0.62,-0.28,9.94,-0.01,-0.31,0.07,1720171278166
0.72,-0.26,9.93,-0.00,-0.31,0.07,1720171278169
0.85,-0.26,9.94,0.00,-0.30,0.06,1720171278172
0.91,-0.24,9.90,0.01,-0.30,0.06,1720171278175
0.97,-0.24,9.85,0.01,-0.30,0.05,1720171278178
1.05,-0.22,9.81,0.02,-0.30,0.04,1720171278180
1.07,-0.21,9.75,0.02,-0.29,0.03,1720171278183
1.12,-0.17,9.68,0.02,-0.29,0.02,1720171278186
1.13,-0.15,9.62,0.02,-0.29,0.01,1720171278189
1.15,-0.14,9.61,0.01,-0.28,0.00,1720171278192
1.18,-0.14,9.56,0.01,-0.28,-0.01,1720171278195
1.17,-0.13,9.56,0.01,-0.27,-0.01,1720171278198
1.15,-0.08,9.51,0.00,-0.27,-0.02,1720171278201
1.11,-0.09,9.55,-0.00,-0.26,-0.03,1720171278204
1.06,-0.12,9.61,-0.01,-0.26,-0.05,1720171278207
1.00,-0.16,9.67,-0.01,-0.26,-0.05,1720171278210
0.93,-0.19,9.74,-0.02,-0.25,-0.06,1720171278212
0.86,-0.23,9.87,-0.02,-0.25,-0.06,1720171278215
0.78,-0.24,9.93,-0.02,-0.25,-0.06,1720171278218
0.70,-0.26,9.99,-0.01,-0.25,-0.06,1720171278221
0.67,-0.26,10.01,-0.01,-0.24,-0.06,1720171278224
0.61,-0.31,10.03,-0.01,-0.24,-0.05,1720171278227
0.58,-0.37,10.05,-0.00,-0.24,-0.04,1720171278230
0.54,-0.40,10.05,-0.00,-0.24,-0.03,1720171278233
0.52,-0.36,9.97,0.00,-0.23,-0.02,1720171278236
0.55,-0.33,9.95,0.01,-0.23,-0.01,1720171278239
0.58,-0.33,9.88,0.01,-0.23,0.01,1720171278242
0.64,-0.30,9.85,0.01,-0.23,0.02,1720171278244
0.70,-0.25,9.77,0.01,-0.22,0.03,1720171278247
0.79,-0.21,9.73,0.01,-0.22,0.04,1720171278250
0.89,-0.17,9.67,0.01,-0.22,0.05,1720171278253
0.99,-0.14,9.62,0.01,-0.22,0.05,1720171278256
1.10,-0.08,9.62,0.00,-0.22,0.06,1720171278259
1.18,-0.05,9.61,0.00,-0.21,0.06,1720171278262
1.24,-0.02,9.61,0.00,-0.21,0.06,1720171278265
1.30,-0.01,9.61,-0.00,-0.21,0.05,1720171278268
1.38,0.00,9.67,-0.00,-0.20,0.05,1720171278271
1.42,0.00,9.69,-0.01,-0.20,0.04,1720171278274
1.46,0.01,9.70,-0.01,-0.19,0.04,1720171278276
1.48,0.03,9.71,-0.01,-0.19,0.03,1720171278279
1.50,0.03,9.78,-0.01,-0.19,0.03,1720171278282
1.48,0.02,9.81,-0.02,-0.18,0.02,1720171278285
1.48,0.01,9.85,-0.02,-0.17,0.02,1720171278288
1.47,0.02,9.93,-0.02,-0.17,0.02,1720171278291
1.43,-0.02,9.98,-0.02,-0.16,0.02,1720171278294
1.42,-0.04,10.04,-0.02,-0.16,0.02,1720171278297
1.41,-0.04,10.04,-0.01,-0.15,0.02,1720171278300
1.40,-0.01,10.03,-0.01,-0.15,0.02,1720171278303
1.41,-0.01,10.05,-0.01,-0.15,0.02,1720171278305
1.44,0.00,10.08,-0.00,-0.15,0.02,1720171278308
1.46,0.04,10.05,0.00,-0.14,0.02,1720171278311
1.49,0.11,10.03,0.00,-0.14,0.02,1720171278314
1.50,0.10,9.95,0.01,-0.14,0.02,1720171278317
1.52,0.14,9.85,0.01,-0.13,0.02,1720171278320
1.52,0.17,9.75,0.01,-0.13,0.02,1720171278323
1.53,0.19,9.72,0.01,-0.12,0.01,1720171278326
1.51,0.20,9.66,0.01,-0.12,0.01,1720171278329
1.49,0.20,9.61,0.00,-0.12,0.01,1720171278332
1.51,0.20,9.59,0.00,-0.11,0.00,1720171278335
1.50,0.24,9.57,-0.00,-0.11,-0.00,1720171278337
1.51,0.27,9.59,-0.01,-0.10,-0.00,1720171278340
1.50,0.28,9.64,-0.01,-0.10,-0.01,1720171278343
1.48,0.26,9.68,-0.02,-0.09,-0.01,1720171278346
1.46,0.26,9.73,-0.02,-0.09,-0.02,1720171278349
1.40,0.24,9.79,-0.02,-0.08,-0.02,1720171278352
1.40,0.25,9.84,-0.02,-0.08,-0.02,1720171278355
1.36,0.23,9.90,-0.02,-0.08,-0.03,1720171278358
1.36,0.22,9.93,-0.02,-0.07,-0.03,1720171278361
1.33,0.18,9.97,-0.01,-0.07,-0.03,1720171278364
1.31,0.20,10.01,-0.01,-0.07,-0.03,1720171278367
1.27,0.21,9.96,-0.01,-0.06,-0.03,1720171278369
1.24,0.23,9.97,-0.00,-0.06,-0.03,1720171278372
1.20,0.23,9.91,0.00,-0.05,-0.03,1720171278375
1.18,0.26,9.89,0.00,-0.05,-0.03,1720171278378
1.14,0.28,9.85,0.00,-0.05,-0.03,1720171278381
1.10,0.30,9.83,0.01,-0.05,-0.03,1720171278384
1.07,0.31,9.77,0.00,-0.04,-0.03,1720171278387
1.05,0.32,9.75,0.00,-0.04,-0.03,1720171278390
1.05,0.33,9.71,0.00,-0.04,-0.03,1720171278393
1.03,0.34,9.72,-0.00,-0.04,-0.03,1720171278396
1.01,0.32,9.70,-0.00,-0.03,-0.03,1720171278399
0.99,0.31,9.71,-0.01,-0.03,-0.03,1720171278401
0.97,0.29,9.65,-0.01,-0.03,-0.03,1720171278404
0.92,0.27,9.66,-0.01,-0.02,-0.03,1720171278407
0.89,0.27,9.72,-0.01,-0.02,-0.03,1720171278410
0.89,0.27,9.71,-0.01,-0.02,-0.03,1720171278413
0.90,0.27,9.74,-0.01,-0.02,-0.03,1720171278416
0.87,0.25,9.83,-0.01,-0.01,-0.03,1720171278419
0.83,0.27,9.83,-0.01,-0.01,-0.04,1720171278422
0.81,0.27,9.85,-0.01,-0.01,-0.04,1720171278425
0.81,0.27,9.89,-0.01,-0.01,-0.04,1720171278428
0.79,0.27,9.92,-0.01,-0.01,-0.04,1720171278431
0.76,0.25,9.89,-0.01,-0.01,-0.04,1720171278433
0.69,0.23,9.91,-0.01,-0.00,-0.04,1720171278436
0.64,0.23,9.88,-0.00,-0.00,-0.05,1720171278439
0.62,0.22,9.86,-0.00,-0.00,-0.04,1720171278442
0.60,0.22,9.89,-0.00,0.00,-0.04,1720171278445
0.57,0.21,9.88,-0.01,0.00,-0.04,1720171278448
0.54,0.20,9.86,-0.01,0.00,-0.04,1720171278451
0.52,0.19,9.87,-0.00,0.00,-0.03,1720171278454
0.51,0.17,9.86,-0.00,0.00,-0.03,1720171278457
0.48,0.16,9.83,-0.00,0.00,-0.03,1720171278460
0.48,0.17,9.79,-0.00,0.01,-0.03,1720171278463
0.46,0.16,9.76,-0.00,0.01,-0.03,1720171278465
0.46,0.12,9.73,-0.00,0.01,-0.02,1720171278468
0.45,0.15,9.76,0.00,0.01,-0.02,1720171278471
0.45,0.16,9.73,0.00,0.01,-0.01,1720171278474
0.46,0.16,9.72,0.00,0.01,-0.01,1720171278477
0.49,0.15,9.72,-0.00,0.01,-0.01,1720171278480
0.53,0.14,9.75,-0.00,0.01,-0.01,1720171278483
0.56,0.17,9.72,-0.00,0.01,-0.00,1720171278486
0.57,0.18,9.76,-0.01,0.02,-0.00,1720171278489
0.59,0.19,9.79,-0.01,0.02,-0.00,1720171278492
0.65,0.17,9.83,-0.01,0.02,-0.00,1720171278495
0.67,0.17,9.85,-0.01,0.02,0.00,1720171278497
0.69,0.15,9.87,-0.01,0.02,-0.00,1720171278500
0.73,0.15,9.90,-0.01,0.02,-0.00,1720171278503
0.76,0.12,9.89,-0.01,0.02,-0.00,1720171278506
0.79,0.09,9.87,-0.01,0.02,-0.00,1720171278509
0.78,0.09,9.87,-0.01,0.02,-0.01,1720171278512
0.77,0.12,9.94,-0.00,0.02,-0.01,1720171278515
0.79,0.08,9.90,-0.00,0.03,-0.01,1720171278518
0.80,0.07,9.87,0.00,0.03,-0.02,1720171278521
0.81,0.06,9.86,0.00,0.03,-0.02,1720171278524
0.80,0.08,9.80,0.00,0.03,-0.02,1720171278526
0.79,0.11,9.76,0.00,0.03,-0.02,1720171278529
0.78,0.09,9.73,0.00,0.04,-0.03,1720171278532
0.77,0.10,9.73,0.00,0.04,-0.03,1720171278535
0.76,0.07,9.69,0.00,0.04,-0.03,1720171278538
0.74,0.07,9.71,-0.00,0.04,-0.03,1720171278541
0.72,0.09,9.69,-0.00,0.05,-0.03,1720171278544
0.70,0.13,9.68,-0.01,0.05,-0.03,1720171278547
0.69,0.11,9.69,-0.01,0.05,-0.03,1720171278550
0.70,0.05,9.74,-0.01,0.05,-0.03,1720171278553
0.71,0.01,9.76,-0.01,0.05,-0.03,1720171278556
0.69,0.07,9.77,-0.01,0.05,-0.03,1720171278558
0.67,0.11,9.82,-0.01,0.06,-0.03,1720171278561
0.66,0.09,9.85,-0.01,0.06,-0.03,1720171278564
0.65,-0.01,9.87,-0.01,0.06,-0.03,1720171278567
0.65,-0.05,9.89,-0.01,0.06,-0.03,1720171278570
0.63,0.04,9.89,-0.01,0.06,-0.03,1720171278573
0.62,0.11,9.89,-0.00,0.06,-0.03,1720171278576
0.64,0.05,9.89,-0.01,0.06,-0.04,1720171278579
0.65,-0.01,9.87,-0.01,0.06,-0.04,1720171278582
0.60,-0.04,9.90,-0.00,0.06,-0.04,1720171278585
0.57,0.00,9.86,0.00,0.07,-0.04,1720171278588
0.57,0.03,9.85,0.00,0.07,-0.04,1720171278590
0.57,0.02,9.81,-0.00,0.07,-0.04,1720171278593
0.58,-0.06,9.79,-0.00,0.06,-0.04,1720171278596
0.57,-0.10,9.77,-0.01,0.07,-0.03,1720171278599
0.56,-0.04,9.75,-0.00,0.07,-0.03,1720171278602
0.55,-0.02,9.78,-0.01,0.08,-0.03,1720171278605
0.57,-0.08,9.78,-0.01,0.08,-0.03,1720171278608
0.56,-0.15,9.79,-0.01,0.08,-0.03,1720171278611
0.54,-0.12,9.79,-0.01,0.08,-0.03,1720171278614
0.50,-0.15,9.78,-0.00,0.08,-0.04,1720171278617
0.52,-0.16,9.78,-0.00,0.08,-0.04,1720171278620
0.54,-0.19,9.79,-0.00,0.08,-0.04,1720171278622
0.52,-0.22,9.80,-0.01,0.08,-0.03,1720171278625
0.51,-0.19,9.78,-0.00,0.08,-0.03,1720171278628
0.49,-0.12,9.77,-0.00,0.08,-0.03,1720171278631
0.52,-0.10,9.76,-0.00,0.09,-0.03,1720171278634
0.52,-0.11,9.75,-0.00,0.09,-0.03,1720171278637
0.52,-0.15,9.74,-0.00,0.09,-0.03,1720171278640
0.54,-0.11,9.75,-0.00,0.09,-0.03,1720171278643
0.53,-0.08,9.83,-0.01,0.09,-0.03,1720171278646
0.55,-0.06,9.87,-0.01,0.09,-0.03,1720171278649
0.56,-0.06,9.90,-0.01,0.09,-0.03,1720171278651
0.57,-0.09,9.87,-0.01,0.09,-0.03,1720171278654
0.58,-0.10,9.89,-0.01,0.09,-0.03,1720171278657
0.61,-0.08,9.89,-0.01,0.10,-0.03,1720171278660
0.61,-0.10,9.92,-0.01,0.10,-0.04,1720171278663
0.59,-0.12,9.92,-0.01,0.10,-0.04,1720171278666
0.59,-0.10,9.95,-0.00,0.10,-0.04,1720171278669
0.61,-0.07,9.89,-0.00,0.10,-0.04,1720171278672
0.61,-0.08,9.82,-0.00,0.10,-0.05,1720171278675
0.60,-0.06,9.80,0.00,0.10,-0.06,1720171278678
0.53,-0.06,9.74,0.00,0.10,-0.07,1720171278681
0.46,-0.09,9.73,-0.00,0.10,-0.07,1720171278683
0.40,-0.13,9.73,-0.00,0.10,-0.08,1720171278686
0.37,-0.13,9.72,-0.00,0.10,-0.08,1720171278689
0.31,-0.14,9.71,-0.00,0.10,-0.08,1720171278692
0.24,-0.16,9.71,-0.01,0.10,-0.08,1720171278695
0.18,-0.22,9.72,-0.01,0.10,-0.08,1720171278698
0.11,-0.20,9.78,-0.01,0.10,-0.08,1720171278701
0.06,-0.20,9.82,-0.01,0.10,-0.08,1720171278704
0.02,-0.24,9.81,-0.01,0.11,-0.08,1720171278707
0.00,-0.25,9.82,-0.01,0.11,-0.07,1720171278710
-0.04,-0.28,9.80,-0.01,0.11,-0.07,1720171278713
-0.10,-0.29,9.82,-0.01,0.11,-0.06,1720171278715
-0.11,-0.24,9.82,-0.01,0.10,-0.06,1720171278718
-0.14,-0.24,9.84,-0.01,0.10,-0.06,1720171278721
-0.15,-0.28,9.87,-0.01,0.10,-0.06,1720171278724
-0.16,-0.30,9.90,-0.01,0.10,-0.05,1720171278727
-0.18,-0.29,9.87,-0.01,0.10,-0.05,1720171278730
-0.19,-0.27,9.89,-0.01,0.10,-0.04,1720171278733
-0.21,-0.23,9.88,-0.01,0.10,-0.04,1720171278736
-0.21,-0.23,9.88,-0.00,0.10,-0.04,1720171278739
-0.20,-0.23,9.83,-0.00,0.10,-0.04,1720171278742
-0.19,-0.20,9.79,-0.00,0.09,-0.03,1720171278745
-0.20,-0.18,9.77,0.00,0.09,-0.03,1720171278747
-0.19,-0.22,9.76,0.00,0.09,-0.03,1720171278750
-0.18,-0.23,9.72,-0.00,0.09,-0.03,1720171278753
-0.16,-0.22,9.72,0.00,0.09,-0.03,1720171278756
-0.17,-0.16,9.73,-0.00,0.09,-0.03,1720171278759
-0.14,-0.15,9.73,-0.00,0.09,-0.03,1720171278762
-0.11,-0.18,9.71,-0.01,0.09,-0.03,1720171278765
-0.11,-0.18,9.71,-0.01,0.09,-0.03,1720171278768
-0.13,-0.15,9.73,-0.01,0.09,-0.03,1720171278771
-0.13,-0.16,9.79,-0.01,0.09,-0.03,1720171278774
-0.11,-0.17,9.82,-0.01,0.08,-0.04,1720171278777
-0.16,-0.18,9.87,-0.01,0.08,-0.04,1720171278779
-0.18,-0.23,9.88,-0.02,0.08,-0.04,1720171278782
-0.19,-0.25,9.88,-0.01,0.08,-0.05,1720171278785
-0.22,-0.22,9.88,-0.01,0.08,-0.05,1720171278788
-0.21,-0.20,9.87,-0.01,0.08,-0.05,1720171278791
-0.26,-0.20,9.91,-0.01,0.08,-0.04,1720171278794
-0.30,-0.24,9.91,-0.00,0.08,-0.04,1720171278797
-0.33,-0.25,9.87,-0.00,0.07,-0.04,1720171278800
-0.33,-0.23,9.83,0.00,0.07,-0.04,1720171278803
-0.34,-0.21,9.78,-0.00,0.07,-0.04,1720171278806
-0.34,-0.25,9.73,-0.00,0.07,-0.03,1720171278808
-0.35,-0.30,9.74,-0.00,0.07,-0.03,1720171278811
-0.34,-0.29,9.75,-0.00,0.07,-0.02,1720171278814
-0.33,-0.25,9.73,-0.00,0.07,-0.02,1720171278817
-0.31,-0.22,9.73,-0.00,0.07,-0.01,1720171278820
-0.29,-0.28,9.77,-0.01,0.07,-0.01,1720171278823
-0.28,-0.32,9.76,-0.01,0.06,-0.01,1720171278826
-0.24,-0.31,9.76,-0.01,0.06,-0.00,1720171278829
-0.20,-0.26,9.79,-0.01,0.06,0.00,1720171278832
-0.13,-0.24,9.84,-0.01,0.06,0.01,1720171278835
-0.05,-0.24,9.90,-0.01,0.06,0.01,1720171278838
0.02,-0.25,9.91,-0.01,0.06,0.01,1720171278840
0.07,-0.23,9.91,-0.01,0.06,0.01,1720171278843
0.13,-0.19,9.88,-0.00,0.07,0.01,1720171278846
0.17,-0.15,9.86,-0.00,0.07,0.01,1720171278849
0.21,-0.15,9.83,-0.00,0.06,0.01,1720171278852
0.24,-0.18,9.80,-0.00,0.07,0.00,1720171278855
0.26,-0.16,9.79,-0.00,0.07,-0.01,1720171278858
0.28,-0.13,9.79,-0.00,0.06,-0.02,1720171278861
0.32,-0.16,9.77,-0.01,0.06,-0.03,1720171278864
0.31,-0.21,9.79,-0.01,0.06,-0.03,1720171278867
0.28,-0.18,9.80,-0.01,0.06,-0.03,1720171278870
0.23,-0.17,9.77,-0.00,0.06,-0.04,1720171278873
0.23,-0.13,9.78,-0.01,0.06,-0.04,1720171278876
0.23,-0.11,9.83,-0.01,0.07,-0.04,1720171278878
0.21,-0.09,9.81,-0.01,0.07,-0.04,1720171278881
0.18,-0.07,9.78,-0.01,0.07,-0.04,1720171278884
0.15,-0.04,9.77,-0.01,0.07,-0.04,1720171278887
0.14,-0.02,9.80,-0.01,0.07,-0.05,1720171278890
0.12,-0.06,9.81,-0.01,0.07,-0.05,1720171278893
0.08,-0.04,9.80,-0.01,0.07,-0.05,1720171278896
0.03,-0.04,9.83,-0.01,0.07,-0.04,1720171278899
0.02,-0.10,9.83,-0.01,0.07,-0.04,1720171278902
0.04,-0.14,9.87,-0.02,0.07,-0.03,1720171278905
0.03,-0.15,9.90,-0.02,0.07,-0.03,1720171278908
0.09,-0.95,9.96,-0.02,0.08,-0.01,1720171278910
0.12,-0.87,9.78,-0.03,0.09,-0.01,1720171278913
0.00,0.33,9.89,0.03,0.09,-0.01,1720171278916
0.07,0.31,10.03,-0.00,0.07,-0.02,1720171278919
0.08,0.00,9.87,-0.03,0.06,-0.02,1720171278922
0.13,-0.92,9.92,-0.02,0.06,-0.02,1720171278925
0.20,-0.28,9.89,0.01,0.07,-0.00,1720171278928
0.04,0.85,10.00,0.04,0.07,0.01,1720171278931
0.20,0.65,9.94,-0.01,0.06,0.00,1720171278934
0.34,-0.56,9.84,-0.05,0.07,0.03,1720171278937
0.36,-0.95,9.77,-0.03,0.09,0.05,1720171278940
0.32,-0.42,9.73,0.02,0.11,0.04,1720171278942
0.36,0.72,9.69,0.01,0.10,0.03,1720171278945
0.48,0.87,9.79,-0.03,0.08,0.03,1720171278948
0.68,0.18,9.70,-0.05,0.07,0.05,1720171278951
0.72,-0.17,9.80,-0.02,0.08,0.06,1720171278954
0.78,0.04,9.87,-0.01,0.09,0.06,1720171278957
0.97,0.53,9.96,-0.02,0.10,0.06,1720171278960
1.09,0.68,10.03,-0.04,0.11,0.07,1720171278963
1.17,0.52,9.94,-0.04,0.12,0.08,1720171278966
1.19,0.28,9.88,-0.03,0.13,0.06,1720171278969
1.23,0.30,9.84,-0.02,0.13,0.02,1720171278972
1.39,0.31,9.80,-0.00,0.12,-0.00,1720171278974
1.42,0.54,9.76,0.00,0.11,0.01,1720171278977
1.29,0.63,9.70,-0.00,0.10,-0.00,1720171278980
1.16,0.53,9.65,-0.01,0.10,-0.05,1720171278983
1.01,0.54,9.61,0.00,0.11,-0.13,1720171278986
0.86,0.68,9.56,0.01,0.12,-0.18,1720171278989
0.46,1.04,9.43,0.01,0.11,-0.24,1720171278992
-0.01,0.93,9.32,-0.00,0.09,-0.30,1720171278995
-0.54,0.48,9.21,-0.02,0.07,-0.34,1720171278998
-1.07,0.36,9.14,-0.00,0.06,-0.39,1720171279001
-1.65,0.57,9.19,0.02,0.04,-0.42,1720171279004
-2.09,0.81,9.38,0.02,0.05,-0.46,1720171279006
-2.34,0.80,9.60,-0.01,0.10,-0.49,1720171279009
-2.88,0.69,9.51,-0.03,0.16,-0.50,1720171279012
-3.40,0.47,9.30,-0.04,0.21,-0.51,1720171279015
-3.77,0.20,9.14,-0.05,0.21,-0.48,1720171279018
-4.04,0.18,9.03,-0.05,0.19,-0.45,1720171279021
-4.47,0.38,8.98,-0.07,0.13,-0.41,1720171279024
-4.75,0.61,9.23,-0.07,0.06,-0.38,1720171279027
-4.94,0.63,9.67,-0.07,0.00,-0.36,1720171279030
-5.07,0.23,10.13,-0.07,-0.03,-0.33,1720171279033
-5.12,-0.40,10.48,-0.07,-0.04,-0.26,1720171279035
-5.27,-0.62,10.77,-0.06,-0.02,-0.15,1720171279038
-5.48,-0.40,10.95,-0.03,0.01,-0.05,1720171279041
-5.68,-0.13,10.91,-0.02,0.03,0.03,1720171279044
-5.85,-0.14,10.68,-0.01,0.03,0.09,1720171279047
-5.93,-0.56,10.36,0.01,-0.02,0.17,1720171279050
-5.90,-0.89,10.16,0.04,-0.06,0.24,1720171279053
-5.88,-1.07,9.86,0.08,-0.14,0.35,1720171279056
-5.76,-0.83,9.66,0.11,-0.21,0.45,1720171279059
-5.43,-0.60,9.48,0.13,-0.27,0.53,1720171279062
-4.96,-0.52,9.22,0.14,-0.30,0.60,1720171279065
-4.46,-0.45,8.88,0.14,-0.30,0.69,1720171279067
-3.91,-0.27,8.50,0.12,-0.29,0.77,1720171279070
-3.33,-0.05,8.09,0.09,-0.28,0.85,1720171279073
-2.66,0.17,7.83,0.06,-0.28,0.94,1720171279076
-1.91,0.34,7.81,0.01,-0.29,1.05,1720171279079
