AccX,AccY,AccZ,GyrX,GyrY,GyrZ,timestamp
1.81,-0.19,10.12,0.01,0.01,-0.02,1721028195510
1.81,-0.18,10.16,0.01,0.01,-0.02,1721028195513
1.81,-0.17,10.14,0.01,0.01,-0.03,1721028195516
1.81,-0.17,10.11,0.01,0.02,-0.03,1721028195526
1.81,-0.18,10.11,0.01,0.02,-0.03,1721028195529
1.81,-0.17,10.11,0.01,0.02,-0.03,1721028195532
1.83,-0.18,10.11,0.01,0.02,-0.03,1721028195535
1.84,-0.19,10.13,0.01,0.02,-0.03,1721028195538
1.79,-0.18,10.08,0.01,0.02,-0.03,1721028195548
1.81,-0.17,10.08,0.01,0.02,-0.03,1721028195551
1.81,-0.17,10.11,0.02,0.02,-0.03,1721028195554
1.81,-0.18,10.14,0.01,0.01,-0.03,1721028195557
1.81,-0.18,10.12,0.01,0.01,-0.03,1721028195560
1.80,-0.18,10.16,0.01,0.02,-0.03,1721028195570
1.81,-0.20,10.15,0.01,0.02,-0.03,1721028195573
1.81,-0.17,10.14,0.01,0.02,-0.02,1721028195576
1.80,-0.18,10.16,0.01,0.02,-0.02,1721028195579
1.81,-0.19,10.15,0.01,0.02,-0.02,1721028195582
1.81,-0.15,10.16,0.01,0.02,-0.03,1721028195592
1.81,-0.14,10.16,0.01,0.02,-0.03,1721028195595
1.82,-0.15,10.17,0.01,0.01,-0.03,1721028195598
1.82,-0.14,10.16,0.01,0.01,-0.03,1721028195601
1.81,-0.17,10.15,0.01,0.01,-0.03,1721028195604
1.83,-0.17,10.17,0.01,0.02,-0.03,1721028195614
1.81,-0.18,10.17,0.01,0.02,-0.02,1721028195617
1.81,-0.17,10.17,0.01,0.02,-0.02,1721028195620
1.82,-0.17,10.17,0.01,0.02,-0.02,1721028195623
1.84,-0.18,10.16,0.01,0.01,-0.02,1721028195626
1.83,-0.19,10.16,0.01,0.02,-0.03,1721028195636
1.83,-0.18,10.14,0.01,0.02,-0.03,1721028195639
1.81,-0.16,10.16,0.01,0.02,-0.03,1721028195642
1.81,-0.15,10.16,0.01,0.02,-0.03,1721028195645
1.81,-0.13,10.13,0.01,0.01,-0.03,1721028195648
1.81,-0.14,10.11,0.01,0.01,-0.03,1721028195651
1.84,-0.15,10.14,0.01,0.01,-0.02,1721028195661
1.85,-0.18,10.11,0.01,0.01,-0.02,1721028195664
1.85,-0.17,10.13,0.01,0.02,-0.02,1721028195667
1.84,-0.19,10.14,0.01,0.02,-0.03,1721028195670
1.85,-0.19,10.15,0.01,0.02,-0.03,1721028195673
1.85,-0.15,10.14,0.01,0.02,-0.03,1721028195683
1.86,-0.14,10.16,0.01,0.02,-0.03,1721028195686
1.87,-0.14,10.18,0.01,0.02,-0.03,1721028195689
1.87,-0.14,10.17,0.01,0.02,-0.03,1721028195692
1.86,-0.15,10.14,0.01,0.02,-0.03,1721028195695
1.81,-0.17,10.16,0.01,0.02,-0.03,1721028195705
1.81,-0.15,10.17,0.01,0.02,-0.03,1721028195708
1.81,-0.15,10.16,0.01,0.02,-0.03,1721028195711
1.80,-0.15,10.18,0.01,0.02,-0.03,1721028195714
1.80,-0.16,10.12,0.01,0.02,-0.03,1721028195717
1.79,-0.16,10.14,0.01,0.01,-0.02,1721028195727
1.80,-0.17,10.11,0.01,0.01,-0.02,1721028195730
1.82,-0.16,10.10,0.01,0.01,-0.02,1721028195733
1.82,-0.14,10.13,0.01,0.01,-0.02,1721028195736
1.82,-0.12,10.15,0.01,0.01,-0.02,1721028195739
1.84,-0.14,10.15,0.01,0.01,-0.02,1721028195749
1.86,-0.14,10.16,0.01,0.01,-0.02,1721028195752
1.86,-0.13,10.18,0.01,0.01,-0.02,1721028195755
1.87,-0.17,10.14,0.01,0.02,-0.02,1721028195758
1.87,-0.18,10.16,0.01,0.01,-0.03,1721028195761
1.87,-0.17,10.17,0.01,0.02,-0.03,1721028195771
1.88,-0.18,10.13,0.01,0.02,-0.03,1721028195774
1.87,-0.16,10.15,0.01,0.02,-0.03,1721028195777
1.86,-0.16,10.15,0.01,0.02,-0.03,1721028195780
1.86,-0.13,10.16,0.01,0.02,-0.03,1721028195783
1.87,-0.19,10.10,0.01,0.02,-0.03,1721028195793
1.86,-0.17,10.13,0.01,0.02,-0.03,1721028195796
1.86,-0.16,10.10,0.01,0.02,-0.03,1721028195799
1.87,-0.17,10.11,0.01,0.02,-0.03,1721028195802
1.88,-0.15,10.13,0.01,0.02,-0.03,1721028195805
1.86,-0.16,10.17,0.01,0.02,-0.03,1721028195815
1.85,-0.17,10.14,0.01,0.02,-0.03,1721028195818
1.85,-0.19,10.13,0.01,0.02,-0.03,1721028195821
1.88,-0.18,10.11,0.01,0.02,-0.03,1721028195824
1.87,-0.18,10.09,0.01,0.02,-0.03,1721028195827
1.83,-0.17,10.14,0.01,0.02,-0.03,1721028195837
1.84,-0.15,10.12,0.01,0.02,-0.03,1721028195840
1.84,-0.16,10.12,0.01,0.02,-0.03,1721028195843
1.83,-0.15,10.12,0.01,0.02,-0.03,1721028195846
1.84,-0.17,10.15,0.01,0.02,-0.03,1721028195849
1.85,-0.17,10.18,0.01,0.02,-0.03,1721028195859
1.84,-0.18,10.16,0.01,0.02,-0.03,1721028195862
1.81,-0.16,10.13,0.01,0.02,-0.03,1721028195865
1.82,-0.18,10.12,0.01,0.02,-0.03,1721028195868
1.80,-0.20,10.11,0.01,0.02,-0.03,1721028195871
1.81,-0.16,10.12,0.01,0.01,-0.03,1721028195881
1.81,-0.17,10.14,0.01,0.01,-0.03,1721028195884
1.81,-0.18,10.13,0.01,0.01,-0.03,1721028195887
1.81,-0.18,10.13,0.01,0.01,-0.03,1721028195890
1.82,-0.18,10.11,0.01,0.01,-0.03,1721028195893
1.84,-0.20,10.12,0.01,0.02,-0.03,1721028195903
1.84,-0.20,10.13,0.01,0.01,-0.02,1721028195906
1.85,-0.19,10.12,0.01,0.01,-0.03,1721028195909
1.86,-0.20,10.14,0.01,0.01,-0.03,1721028195912
1.84,-0.20,10.12,0.01,0.02,-0.03,1721028195915
1.84,-0.18,10.16,0.01,0.01,-0.03,1721028195925
1.86,-0.17,10.18,0.01,0.01,-0.03,1721028195928
1.85,-0.17,10.14,0.01,0.02,-0.03,1721028195931
1.83,-0.17,10.13,0.01,0.01,-0.03,1721028195934
1.84,-0.17,10.13,0.01,0.01,-0.03,1721028195937
1.82,-0.16,10.15,0.01,0.01,-0.03,1721028195947
1.83,-0.17,10.13,0.01,0.01,-0.03,1721028195950
1.84,-0.17,10.10,0.01,0.01,-0.02,1721028195953
1.86,-0.18,10.11,0.01,0.01,-0.02,1721028195956
1.87,-0.18,10.10,0.01,0.01,-0.02,1721028195959
1.89,-0.18,10.14,0.01,0.01,-0.03,1721028195969
1.89,-0.18,10.16,0.01,0.01,-0.03,1721028195972
1.89,-0.16,10.14,0.01,0.01,-0.03,1721028195975
1.90,-0.16,10.13,0.01,0.01,-0.03,1721028195978
1.90,-0.17,10.14,0.01,0.01,-0.03,1721028195981
1.89,-0.19,10.13,0.01,0.01,-0.03,1721028195991
1.91,-0.18,10.10,0.01,0.01,-0.03,1721028195994
1.90,-0.16,10.11,0.01,0.02,-0.03,1721028195997
1.88,-0.17,10.13,0.01,0.02,-0.03,1721028196000
1.88,-0.18,10.11,0.01,0.02,-0.03,1721028196003
1.89,-0.16,10.09,0.01,0.02,-0.03,1721028196013
1.91,-0.16,10.10,0.01,0.02,-0.03,1721028196016
1.89,-0.18,10.10,0.01,0.02,-0.03,1721028196019
1.89,-0.20,10.10,0.01,0.02,-0.03,1721028196022
1.91,-0.18,10.14,0.01,0.02,-0.03,1721028196025
1.88,-0.16,10.15,0.01,0.02,-0.03,1721028196035
1.87,-0.16,10.12,0.01,0.02,-0.03,1721028196038
1.86,-0.17,10.11,0.01,0.02,-0.03,1721028196041
1.86,-0.15,10.09,0.01,0.02,-0.03,1721028196044
1.89,-0.19,10.14,0.01,0.02,-0.03,1721028196047
1.86,-0.18,10.16,0.01,0.02,-0.03,1721028196057
1.86,-0.18,10.17,0.01,0.02,-0.03,1721028196060
1.85,-0.17,10.14,0.01,0.02,-0.03,1721028196063
1.87,-0.16,10.11,0.01,0.02,-0.03,1721028196066
1.86,-0.14,10.12,0.01,0.02,-0.03,1721028196069
1.91,-0.14,10.14,0.01,0.02,-0.03,1721028196079
1.90,-0.17,10.14,0.01,0.02,-0.03,1721028196082
1.89,-0.17,10.11,0.01,0.02,-0.03,1721028196085
1.89,-0.15,10.15,0.01,0.02,-0.03,1721028196088
1.89,-0.14,10.12,0.01,0.02,-0.02,1721028196091
1.91,-0.14,10.13,0.01,0.02,-0.03,1721028196101
1.91,-0.16,10.16,0.01,0.02,-0.03,1721028196104
1.91,-0.13,10.16,0.01,0.02,-0.02,1721028196107
1.91,-0.15,10.13,0.01,0.02,-0.02,1721028196110
1.90,-0.16,10.12,0.01,0.02,-0.02,1721028196113
1.91,-0.15,10.13,0.01,0.02,-0.02,1721028196123
1.90,-0.16,10.13,0.01,0.02,-0.02,1721028196126
1.91,-0.16,10.13,0.01,0.02,-0.02,1721028196129
1.91,-0.17,10.11,0.01,0.02,-0.03,1721028196132
1.91,-0.16,10.13,0.01,0.02,-0.02,1721028196135
1.87,-0.13,10.11,0.01,0.02,-0.03,1721028196145
1.88,-0.15,10.10,0.01,0.02,-0.03,1721028196148
1.90,-0.18,10.13,0.01,0.02,-0.02,1721028196151
1.89,-0.19,10.14,0.01,0.02,-0.03,1721028196154
1.88,-0.16,10.10,0.01,0.02,-0.03,1721028196157
1.89,-0.14,10.11,0.01,0.02,-0.03,1721028196160
1.90,-0.17,10.11,0.01,0.02,-0.03,1721028196170
1.89,-0.15,10.09,0.01,0.02,-0.03,1721028196173
1.88,-0.16,10.14,0.01,0.02,-0.03,1721028196176
1.87,-0.16,10.12,0.01,0.02,-0.03,1721028196179
1.88,-0.18,10.09,0.01,0.02,-0.03,1721028196182
1.87,-0.18,10.11,0.01,0.02,-0.03,1721028196192
1.86,-0.17,10.14,0.01,0.02,-0.03,1721028196195
1.87,-0.17,10.11,0.01,0.02,-0.03,1721028196198
1.86,-0.18,10.13,0.01,0.02,-0.03,1721028196201
1.87,-0.17,10.11,0.01,0.02,-0.03,1721028196204
1.86,-0.14,10.16,0.01,0.02,-0.03,1721028196214
1.85,-0.17,10.15,0.01,0.02,-0.03,1721028196217
1.84,-0.16,10.11,0.01,0.02,-0.03,1721028196220
1.84,-0.17,10.09,0.01,0.02,-0.03,1721028196223
1.84,-0.15,10.11,0.01,0.02,-0.03,1721028196226
1.82,-0.19,10.08,0.01,0.02,-0.03,1721028196236
1.81,-0.18,10.13,0.01,0.02,-0.03,1721028196239
1.80,-0.16,10.12,0.01,0.02,-0.02,1721028196242
1.83,-0.17,10.12,0.01,0.02,-0.02,1721028196245
1.81,-0.16,10.15,0.01,0.02,-0.02,1721028196248
1.83,-0.17,10.12,0.01,0.02,-0.03,1721028196258
1.83,-0.15,10.14,0.01,0.02,-0.02,1721028196261
1.85,-0.17,10.13,0.01,0.02,-0.02,1721028196264
1.85,-0.17,10.15,0.01,0.02,-0.02,1721028196267
1.84,-0.17,10.12,0.01,0.02,-0.02,1721028196270
1.87,-0.17,10.14,0.02,0.02,-0.03,1721028196280
1.86,-0.17,10.13,0.01,0.02,-0.02,1721028196283
1.85,-0.16,10.12,0.01,0.02,-0.02,1721028196286
1.83,-0.18,10.11,0.01,0.02,-0.02,1721028196289
1.82,-0.16,10.12,0.01,0.02,-0.02,1721028196292
1.85,-0.19,10.15,0.01,0.02,-0.03,1721028196302
1.85,-0.19,10.16,0.01,0.02,-0.03,1721028196305
1.84,-0.20,10.11,0.01,0.02,-0.03,1721028196308
1.83,-0.19,10.11,0.01,0.01,-0.03,1721028196311
1.83,-0.17,10.13,0.01,0.02,-0.03,1721028196314
1.83,-0.18,10.18,0.01,0.02,-0.03,1721028196324
1.81,-0.19,10.19,0.01,0.02,-0.03,1721028196327
1.83,-0.18,10.15,0.01,0.02,-0.03,1721028196330
1.84,-0.18,10.16,0.01,0.02,-0.03,1721028196333
1.83,-0.18,10.16,0.01,0.02,-0.03,1721028196336
1.82,-0.16,10.11,0.01,0.01,-0.03,1721028196346
1.84,-0.16,10.12,0.01,0.01,-0.03,1721028196349
1.82,-0.14,10.12,0.01,0.01,-0.03,1721028196352
1.83,-0.14,10.11,0.01,0.01,-0.03,1721028196355
1.83,-0.14,10.12,0.01,0.01,-0.03,1721028196358
1.84,-0.18,10.12,0.01,0.01,-0.02,1721028196368
1.86,-0.17,10.16,0.01,0.01,-0.02,1721028196371
1.86,-0.17,10.12,0.01,0.01,-0.02,1721028196374
1.85,-0.17,10.13,0.01,0.01,-0.03,1721028196377
1.86,-0.15,10.12,0.01,0.01,-0.02,1721028196380
1.84,-0.16,10.08,0.01,0.01,-0.02,1721028196390
1.84,-0.17,10.11,0.01,0.01,-0.02,1721028196393
1.83,-0.17,10.10,0.01,0.01,-0.03,1721028196396
1.84,-0.17,10.11,0.01,0.01,-0.03,1721028196399
1.88,-0.16,10.10,0.01,0.01,-0.03,1721028196402
1.86,-0.15,10.10,0.01,0.01,-0.02,1721028196412
1.85,-0.15,10.13,0.01,0.01,-0.02,1721028196415
1.83,-0.17,10.15,0.01,0.01,-0.02,1721028196418
1.83,-0.16,10.15,0.01,0.01,-0.02,1721028196421
1.85,-0.16,10.13,0.01,0.01,-0.02,1721028196424
1.87,-0.15,10.13,0.01,0.01,-0.02,1721028196434
1.86,-0.14,10.09,0.01,0.01,-0.02,1721028196437
1.85,-0.16,10.11,0.01,0.01,-0.02,1721028196440
1.86,-0.15,10.13,0.01,0.01,-0.02,1721028196443
1.87,-0.16,10.11,0.02,0.01,-0.03,1721028196446
1.87,-0.14,10.08,0.01,0.01,-0.02,1721028196456
1.89,-0.14,10.07,0.01,0.01,-0.02,1721028196459
1.88,-0.14,10.07,0.01,0.01,-0.02,1721028196462
1.87,-0.14,10.11,0.01,0.01,-0.02,1721028196465
1.88,-0.16,10.12,0.01,0.01,-0.02,1721028196468
1.87,-0.18,10.11,0.01,0.01,-0.02,1721028196478
1.87,-0.18,10.12,0.01,0.01,-0.03,1721028196481
1.86,-0.17,10.12,0.01,0.01,-0.02,1721028196484
1.88,-0.17,10.14,0.01,0.01,-0.03,1721028196487
1.89,-0.17,10.15,0.01,0.01,-0.03,1721028196490
1.86,-0.18,10.13,0.01,0.01,-0.02,1721028196500
1.86,-0.18,10.13,0.01,0.01,-0.03,1721028196503
1.87,-0.16,10.11,0.01,0.01,-0.02,1721028196506
1.85,-0.14,10.13,0.01,0.01,-0.03,1721028196509
1.86,-0.19,10.15,0.01,0.01,-0.03,1721028196512
1.88,-0.15,10.18,0.01,0.01,-0.02,1721028196522
1.87,-0.16,10.16,0.01,0.01,-0.02,1721028196525
1.89,-0.19,10.15,0.01,0.01,-0.02,1721028196528
1.89,-0.19,10.09,0.01,0.01,-0.02,1721028196531
1.87,-0.18,10.14,0.01,0.01,-0.02,1721028196534
1.90,-0.19,10.12,0.01,0.01,-0.03,1721028196544
1.91,-0.18,10.15,0.01,0.01,-0.03,1721028196547
1.89,-0.17,10.12,0.01,0.01,-0.03,1721028196550
1.92,-0.15,10.12,0.01,0.01,-0.03,1721028196553
1.91,-0.19,10.10,0.01,0.01,-0.03,1721028196556
1.86,-0.18,10.10,0.01,0.01,-0.02,1721028196566
1.87,-0.16,10.11,0.01,0.01,-0.02,1721028196569
1.86,-0.16,10.11,0.01,0.01,-0.03,1721028196572
1.85,-0.16,10.13,0.01,0.01,-0.03,1721028196575
1.87,-0.14,10.09,0.01,0.01,-0.03,1721028196578
1.88,-0.19,10.08,0.01,0.01,-0.03,1721028196588
1.87,-0.19,10.09,0.01,0.01,-0.02,1721028196591
1.86,-0.17,10.10,0.01,0.01,-0.02,1721028196594
1.86,-0.17,10.14,0.01,0.01,-0.02,1721028196597
1.86,-0.17,10.14,0.01,0.01,-0.02,1721028196600
1.87,-0.14,10.16,0.01,0.01,-0.03,1721028196610
1.88,-0.15,10.14,0.01,0.01,-0.03,1721028196613
1.89,-0.14,10.12,0.01,0.01,-0.03,1721028196616
1.87,-0.14,10.13,0.01,0.01,-0.03,1721028196619
1.86,-0.14,10.16,0.01,0.01,-0.03,1721028196622
1.86,-0.14,10.12,0.01,0.00,-0.03,1721028196632
1.87,-0.12,10.11,0.01,0.00,-0.03,1721028196635
1.86,-0.15,10.10,0.01,0.00,-0.03,1721028196638
1.84,-0.13,10.10,0.01,0.01,-0.03,1721028196641
1.84,-0.12,10.15,0.01,0.01,-0.03,1721028196644
1.84,-0.15,10.13,0.01,0.01,-0.02,1721028196654
1.83,-0.15,10.13,0.01,0.01,-0.02,1721028196657
1.88,-0.12,10.12,0.01,0.01,-0.02,1721028196660
1.88,-0.11,10.12,0.01,0.00,-0.02,1721028196663
1.86,-0.12,10.12,0.01,0.00,-0.02,1721028196666
1.84,-0.10,10.10,0.01,-0.00,-0.02,1721028196676
1.86,-0.12,10.12,0.01,-0.00,-0.02,1721028196679
1.89,-0.13,10.12,0.01,-0.00,-0.02,1721028196682
1.92,-0.11,10.13,0.01,-0.00,-0.02,1721028196685
1.92,-0.11,10.15,0.01,-0.00,-0.02,1721028196688
1.94,-0.10,10.09,0.01,0.00,-0.02,1721028196698
1.96,-0.11,10.12,0.01,0.00,-0.02,1721028196701
1.96,-0.10,10.12,0.01,0.00,-0.02,1721028196704
1.96,-0.11,10.09,0.01,0.00,-0.02,1721028196707
1.97,-0.10,10.12,0.01,0.00,-0.02,1721028196710
1.99,-0.08,10.11,0.01,0.00,-0.02,1721028196720
1.99,-0.08,10.12,0.01,0.00,-0.02,1721028196723
1.99,-0.10,10.13,0.01,0.00,-0.02,1721028196726
1.97,-0.11,10.10,0.01,0.00,-0.02,1721028196729
1.95,-0.10,10.07,0.01,0.00,-0.02,1721028196732
1.97,-0.07,10.08,0.01,0.00,-0.02,1721028196742
1.98,-0.07,10.09,0.01,0.00,-0.02,1721028196745
1.98,-0.10,10.11,0.01,0.01,-0.02,1721028196748
1.99,-0.09,10.14,0.01,0.01,-0.02,1721028196751
1.98,-0.09,10.12,0.01,0.01,-0.02,1721028196754
2.01,-0.08,10.15,0.01,0.00,-0.02,1721028196764
2.02,-0.06,10.13,0.01,0.00,-0.02,1721028196767
2.03,-0.06,10.12,0.01,0.00,-0.02,1721028196770
2.04,-0.08,10.18,0.01,0.00,-0.02,1721028196773
2.04,-0.07,10.18,0.01,0.00,-0.02,1721028196776
2.04,-0.07,10.10,0.01,0.01,-0.02,1721028196786
2.05,-0.09,10.11,0.01,0.01,-0.02,1721028196789
2.06,-0.10,10.10,0.01,0.01,-0.02,1721028196792
2.05,-0.09,10.11,0.01,0.01,-0.02,1721028196795
2.04,-0.09,10.09,0.01,0.01,-0.02,1721028196798
2.08,-0.09,10.12,0.01,0.01,-0.02,1721028196808
2.09,-0.08,10.10,0.01,0.01,-0.02,1721028196811
2.08,-0.09,10.12,0.01,0.01,-0.02,1721028196814
2.08,-0.10,10.13,0.01,0.01,-0.02,1721028196817
2.08,-0.09,10.12,0.01,0.01,-0.02,1721028196820
2.12,-0.09,10.14,0.01,0.01,-0.02,1721028196830
2.13,-0.09,10.12,0.01,0.01,-0.02,1721028196833
2.16,-0.10,10.14,0.01,0.01,-0.02,1721028196836
2.15,-0.09,10.10,0.01,0.02,-0.02,1721028196839
2.16,-0.05,10.08,0.01,0.02,-0.02,1721028196842
2.20,-0.08,10.15,0.01,0.02,-0.03,1721028196852
2.21,-0.07,10.15,0.01,0.02,-0.03,1721028196855
2.21,-0.09,10.17,0.01,0.03,-0.03,1721028196858
2.21,-0.09,10.14,0.01,0.03,-0.03,1721028196861
2.19,-0.07,10.13,0.01,0.03,-0.03,1721028196864
2.21,-0.07,10.16,0.01,0.03,-0.03,1721028196874
2.21,-0.09,10.14,0.01,0.03,-0.03,1721028196877
2.20,-0.08,10.14,0.01,0.03,-0.03,1721028196880
2.19,-0.09,10.13,0.01,0.03,-0.03,1721028196883
2.16,-0.10,10.11,0.01,0.03,-0.03,1721028196886
2.18,-0.10,10.16,0.01,0.04,-0.03,1721028196896
2.18,-0.09,10.13,0.01,0.04,-0.03,1721028196899
2.17,-0.11,10.12,0.01,0.04,-0.03,1721028196902
2.19,-0.12,10.11,0.01,0.04,-0.03,1721028196905
2.16,-0.11,10.12,0.01,0.04,-0.03,1721028196908
2.15,-0.10,10.13,0.01,0.04,-0.03,1721028196918
2.15,-0.12,10.15,0.01,0.04,-0.03,1721028196921
2.16,-0.10,10.17,0.01,0.05,-0.03,1721028196924
2.17,-0.08,10.17,0.01,0.05,-0.03,1721028196927
2.17,-0.09,10.14,0.01,0.05,-0.03,1721028196930
2.13,-0.11,10.12,0.01,0.05,-0.03,1721028196940
2.13,-0.11,10.15,0.01,0.05,-0.03,1721028196943
2.14,-0.11,10.10,0.01,0.05,-0.03,1721028196946
2.11,-0.13,10.11,0.01,0.05,-0.03,1721028196949
2.10,-0.14,10.15,0.01,0.05,-0.03,1721028196952
2.10,-0.11,10.11,0.01,0.05,-0.03,1721028196962
2.07,-0.11,10.11,0.01,0.05,-0.03,1721028196965
2.09,-0.12,10.08,0.01,0.05,-0.03,1721028196968
2.09,-0.13,10.08,0.01,0.05,-0.03,1721028196971
2.10,-0.13,10.08,0.01,0.05,-0.03,1721028196974
2.11,-0.12,10.08,0.01,0.05,-0.03,1721028196984
2.12,-0.11,10.08,0.01,0.06,-0.03,1721028196987
2.11,-0.11,10.12,0.01,0.06,-0.03,1721028196990
2.10,-0.11,10.16,0.01,0.06,-0.03,1721028196993
2.12,-0.11,10.16,0.01,0.06,-0.03,1721028196996
2.09,-0.10,10.09,0.01,0.06,-0.03,1721028197006
2.11,-0.12,10.11,0.01,0.06,-0.03,1721028197009
2.09,-0.13,10.11,0.01,0.06,-0.03,1721028197012
2.08,-0.11,10.13,0.01,0.06,-0.03,1721028197015
2.09,-0.11,10.12,0.01,0.06,-0.03,1721028197018
2.07,-0.15,10.15,0.01,0.07,-0.04,1721028197028
2.07,-0.14,10.18,0.01,0.07,-0.03,1721028197031
2.07,-0.13,10.17,0.01,0.07,-0.03,1721028197034
2.05,-0.14,10.18,0.01,0.07,-0.04,1721028197037
2.06,-0.13,10.15,0.01,0.07,-0.03,1721028197040
2.07,-0.13,10.14,0.01,0.07,-0.03,1721028197050
2.07,-0.14,10.13,0.01,0.07,-0.03,1721028197053
2.05,-0.15,10.16,0.01,0.07,-0.03,1721028197056
2.05,-0.16,10.15,0.01,0.07,-0.03,1721028197059
2.05,-0.15,10.16,0.01,0.07,-0.03,1721028197062
2.05,-0.16,10.13,0.01,0.08,-0.03,1721028197072
2.02,-0.17,10.09,0.01,0.08,-0.03,1721028197075
2.04,-0.17,10.07,0.01,0.08,-0.03,1721028197078
2.03,-0.14,10.08,0.01,0.08,-0.03,1721028197081
2.05,-0.11,10.08,0.01,0.08,-0.03,1721028197084
2.07,-0.13,10.15,0.01,0.08,-0.03,1721028197094
2.07,-0.13,10.17,0.01,0.08,-0.03,1721028197097
2.06,-0.14,10.15,0.01,0.08,-0.03,1721028197100
2.07,-0.14,10.14,0.01,0.08,-0.03,1721028197103
2.09,-0.14,10.16,0.01,0.08,-0.03,1721028197106
2.06,-0.16,10.15,0.01,0.09,-0.03,1721028197116
2.05,-0.17,10.14,0.01,0.09,-0.03,1721028197119
2.06,-0.17,10.12,0.01,0.09,-0.03,1721028197122
2.07,-0.15,10.10,0.01,0.09,-0.03,1721028197125
2.07,-0.16,10.10,0.01,0.09,-0.03,1721028197128
2.07,-0.15,10.12,0.01,0.09,-0.03,1721028197138
2.09,-0.14,10.13,0.01,0.09,-0.03,1721028197141
2.08,-0.14,10.12,0.01,0.09,-0.03,1721028197144
2.07,-0.17,10.13,0.01,0.10,-0.03,1721028197147
2.06,-0.20,10.14,0.01,0.09,-0.03,1721028197150
2.10,-0.17,10.14,0.01,0.10,-0.03,1721028197160
2.10,-0.17,10.14,0.01,0.10,-0.03,1721028197163
2.11,-0.16,10.11,0.01,0.10,-0.03,1721028197166
2.11,-0.17,10.14,0.01,0.10,-0.03,1721028197169
2.13,-0.19,10.13,0.01,0.10,-0.03,1721028197172
2.08,-0.17,10.16,0.01,0.11,-0.03,1721028197182
2.08,-0.17,10.14,0.01,0.11,-0.03,1721028197185
2.09,-0.19,10.10,0.01,0.11,-0.03,1721028197188
2.10,-0.18,10.11,0.01,0.11,-0.03,1721028197191
2.09,-0.17,10.11,0.01,0.11,-0.03,1721028197194
2.06,-0.19,10.16,0.01,0.11,-0.03,1721028197204
2.06,-0.20,10.16,0.01,0.12,-0.03,1721028197207
2.06,-0.21,10.16,0.01,0.12,-0.03,1721028197210
2.07,-0.18,10.15,0.01,0.12,-0.03,1721028197213
2.05,-0.20,10.12,0.01,0.12,-0.03,1721028197216
2.00,-0.20,10.15,0.01,0.12,-0.03,1721028197226
1.99,-0.19,10.15,0.01,0.12,-0.03,1721028197229
2.00,-0.19,10.14,0.01,0.12,-0.03,1721028197232
2.02,-0.19,10.15,0.01,0.12,-0.03,1721028197235
1.99,-0.19,10.17,0.01,0.12,-0.03,1721028197238
2.01,-0.20,10.11,0.01,0.13,-0.03,1721028197248
2.00,-0.20,10.12,0.01,0.13,-0.03,1721028197251
2.00,-0.20,10.13,0.01,0.13,-0.03,1721028197254
1.97,-0.21,10.13,0.01,0.13,-0.03,1721028197257
1.95,-0.20,10.12,0.01,0.13,-0.03,1721028197260
1.93,-0.20,10.15,0.01,0.13,-0.03,1721028197270
1.92,-0.20,10.12,0.01,0.13,-0.03,1721028197273
1.93,-0.21,10.12,0.00,0.14,-0.03,1721028197276
1.92,-0.23,10.09,0.01,0.14,-0.03,1721028197279
1.92,-0.23,10.10,0.00,0.14,-0.03,1721028197282
1.87,-0.22,10.09,0.01,0.14,-0.03,1721028197292
1.86,-0.23,10.11,0.01,0.14,-0.03,1721028197295
1.87,-0.23,10.11,0.01,0.14,-0.03,1721028197298
1.89,-0.23,10.13,0.00,0.14,-0.03,1721028197301
1.90,-0.23,10.12,0.00,0.14,-0.03,1721028197304
1.92,-0.22,10.16,0.00,0.14,-0.03,1721028197314
1.90,-0.22,10.17,0.00,0.14,-0.03,1721028197317
1.92,-0.22,10.18,0.00,0.14,-0.03,1721028197320
1.93,-0.19,10.19,0.01,0.14,-0.03,1721028197323
1.92,-0.21,10.17,0.01,0.14,-0.03,1721028197326
1.93,-0.20,10.17,0.00,0.15,-0.03,1721028197336
1.90,-0.19,10.13,0.00,0.15,-0.03,1721028197339
1.92,-0.19,10.13,0.00,0.15,-0.03,1721028197342
1.91,-0.20,10.12,0.00,0.15,-0.03,1721028197345
1.87,-0.23,10.15,0.00,0.16,-0.03,1721028197348
1.87,-0.22,10.11,0.00,0.16,-0.03,1721028197358
1.84,-0.22,10.15,0.00,0.16,-0.03,1721028197361
1.84,-0.20,10.18,0.00,0.16,-0.03,1721028197364
1.85,-0.20,10.15,0.01,0.16,-0.03,1721028197367
1.84,-0.21,10.14,0.00,0.16,-0.03,1721028197370
1.80,-0.20,10.15,0.00,0.16,-0.03,1721028197380
1.80,-0.18,10.15,0.00,0.16,-0.03,1721028197383
1.78,-0.18,10.18,0.00,0.17,-0.03,1721028197386
1.74,-0.18,10.18,0.00,0.17,-0.04,1721028197389
1.74,-0.18,10.20,0.00,0.17,-0.04,1721028197392
1.72,-0.20,10.13,0.00,0.17,-0.04,1721028197402
1.71,-0.18,10.09,0.00,0.17,-0.04,1721028197405
1.70,-0.16,10.11,0.00,0.17,-0.04,1721028197408
1.67,-0.17,10.11,0.00,0.17,-0.03,1721028197411
1.67,-0.17,10.13,0.00,0.17,-0.03,1721028197414
1.66,-0.17,10.17,0.00,0.17,-0.03,1721028197424
1.67,-0.17,10.16,0.00,0.17,-0.03,1721028197427
1.67,-0.18,10.20,0.00,0.17,-0.03,1721028197430
1.69,-0.19,10.21,0.00,0.17,-0.03,1721028197433
1.68,-0.18,10.19,0.00,0.17,-0.03,1721028197436
1.68,-0.18,10.13,0.00,0.17,-0.03,1721028197446
1.68,-0.17,10.18,0.00,0.17,-0.03,1721028197449
1.68,-0.17,10.19,0.00,0.17,-0.03,1721028197452
1.68,-0.15,10.18,0.00,0.18,-0.03,1721028197455
1.68,-0.14,10.16,0.00,0.18,-0.03,1721028197458
1.65,-0.14,10.16,0.00,0.18,-0.02,1721028197468
1.62,-0.15,10.14,0.00,0.18,-0.02,1721028197471
1.62,-0.14,10.13,0.00,0.18,-0.02,1721028197474
1.64,-0.14,10.14,0.00,0.18,-0.02,1721028197477
1.63,-0.15,10.18,0.00,0.18,-0.02,1721028197484
1.64,-0.12,10.17,0.00,0.18,-0.02,1721028197487
1.65,-0.12,10.17,0.00,0.18,-0.02,1721028197490
1.64,-0.12,10.16,0.00,0.18,-0.01,1721028197493
1.67,-0.13,10.17,0.00,0.18,-0.01,1721028197502
1.69,-0.14,10.20,0.00,0.18,-0.01,1721028197505
1.70,-0.14,10.18,0.00,0.18,-0.01,1721028197508
1.70,-0.14,10.18,0.00,0.19,-0.01,1721028197511
1.71,-0.14,10.18,0.00,0.18,-0.01,1721028197514
1.76,-0.14,10.19,0.00,0.19,-0.02,1721028197524
1.78,-0.14,10.18,0.00,0.20,-0.02,1721028197527
1.80,-0.13,10.21,0.00,0.20,-0.02,1721028197530
1.77,-0.11,10.18,0.00,0.20,-0.02,1721028197533
1.78,-0.11,10.16,0.00,0.20,-0.02,1721028197536
1.74,-0.12,10.17,-0.00,0.21,-0.02,1721028197546
1.75,-0.13,10.19,-0.00,0.21,-0.03,1721028197549
1.72,-0.14,10.18,0.00,0.21,-0.03,1721028197552
1.70,-0.11,10.18,0.00,0.21,-0.03,1721028197555
1.68,-0.11,10.19,-0.00,0.22,-0.03,1721028197558
1.63,-0.13,10.16,0.00,0.22,-0.03,1721028197568
1.63,-0.12,10.15,0.00,0.22,-0.03,1721028197571
1.61,-0.13,10.18,0.00,0.22,-0.03,1721028197574
1.61,-0.12,10.18,0.00,0.22,-0.03,1721028197577
1.59,-0.12,10.18,-0.00,0.22,-0.03,1721028197580
1.57,-0.15,10.16,0.00,0.22,-0.03,1721028197590
1.58,-0.12,10.14,0.00,0.22,-0.03,1721028197593
1.56,-0.11,10.15,-0.00,0.22,-0.03,1721028197596
1.54,-0.11,10.18,-0.00,0.23,-0.02,1721028197599
1.54,-0.13,10.19,-0.00,0.23,-0.02,1721028197602
1.55,-0.11,10.20,-0.00,0.23,-0.03,1721028197612
1.56,-0.12,10.23,-0.00,0.24,-0.03,1721028197615
1.55,-0.12,10.17,-0.00,0.24,-0.03,1721028197618
1.56,-0.13,10.18,-0.00,0.24,-0.03,1721028197621
1.51,-0.11,10.24,-0.00,0.24,-0.03,1721028197624
1.47,-0.16,10.19,-0.00,0.25,-0.03,1721028197634
1.43,-0.11,10.25,-0.00,0.25,-0.02,1721028197637
1.41,-0.10,10.29,-0.00,0.25,-0.03,1721028197640
1.41,-0.16,10.22,-0.00,0.25,-0.03,1721028197643
1.46,-0.21,10.15,-0.00,0.25,-0.02,1721028197646
1.41,-0.14,10.25,-0.00,0.25,-0.02,1721028197656
1.44,-0.19,10.18,-0.00,0.25,-0.02,1721028197659
1.46,-0.15,10.17,-0.00,0.24,-0.02,1721028197662
1.46,-0.08,10.21,-0.00,0.24,-0.02,1721028197665
1.44,-0.09,10.20,-0.00,0.25,-0.02,1721028197668
1.45,-0.16,10.20,-0.00,0.25,-0.01,1721028197678
1.45,-0.12,10.19,-0.00,0.26,-0.01,1721028197681
1.49,-0.13,10.21,-0.00,0.26,-0.02,1721028197684
1.50,-0.14,10.19,-0.00,0.26,-0.02,1721028197687
1.49,-0.13,10.19,-0.00,0.27,-0.02,1721028197690
1.39,-0.15,10.22,-0.00,0.27,-0.04,1721028197700
1.36,-0.16,10.22,-0.00,0.28,-0.04,1721028197703
1.33,-0.17,10.20,-0.00,0.28,-0.04,1721028197706
1.29,-0.16,10.20,-0.00,0.28,-0.04,1721028197709
1.26,-0.18,10.21,-0.00,0.28,-0.04,1721028197712
1.12,-0.21,10.19,-0.00,0.29,-0.03,1721028197722
1.13,-0.20,10.18,-0.00,0.29,-0.03,1721028197725
1.07,-0.19,10.21,-0.00,0.28,-0.03,1721028197728
1.07,-0.19,10.20,-0.00,0.28,-0.03,1721028197731
1.06,-0.21,10.18,-0.00,0.28,-0.03,1721028197734
1.03,-0.20,10.16,-0.00,0.27,-0.03,1721028197744
1.03,-0.19,10.15,-0.00,0.27,-0.03,1721028197747
1.02,-0.21,10.15,-0.00,0.28,-0.02,1721028197750
1.01,-0.22,10.17,-0.00,0.28,-0.02,1721028197753
1.01,-0.22,10.18,-0.00,0.28,-0.02,1721028197756
1.01,-0.21,10.20,-0.01,0.29,-0.02,1721028197766
1.01,-0.21,10.19,-0.00,0.29,-0.02,1721028197769
1.02,-0.23,10.18,-0.00,0.29,-0.03,1721028197772
1.01,-0.22,10.20,-0.00,0.29,-0.03,1721028197775
0.98,-0.23,10.19,-0.00,0.29,-0.03,1721028197778
0.93,-0.24,10.20,-0.00,0.29,-0.03,1721028197788
0.93,-0.24,10.17,-0.00,0.29,-0.03,1721028197791
0.91,-0.25,10.18,-0.00,0.29,-0.03,1721028197794
0.85,-0.25,10.21,-0.00,0.29,-0.03,1721028197797
0.84,-0.26,10.20,-0.00,0.29,-0.03,1721028197800
0.77,-0.24,10.21,-0.00,0.29,-0.03,1721028197810
0.75,-0.24,10.21,-0.00,0.29,-0.03,1721028197813
0.72,-0.25,10.21,-0.00,0.29,-0.03,1721028197816
0.73,-0.25,10.20,-0.00,0.29,-0.03,1721028197819
0.73,-0.25,10.23,-0.01,0.29,-0.03,1721028197822
0.69,-0.29,10.20,-0.00,0.29,-0.03,1721028197832
0.69,-0.28,10.23,-0.00,0.29,-0.03,1721028197835
0.68,-0.27,10.22,-0.00,0.29,-0.03,1721028197838
0.65,-0.29,10.22,-0.00,0.29,-0.03,1721028197841
0.62,-0.27,10.19,-0.00,0.29,-0.03,1721028197844
0.57,-0.34,10.16,-0.00,0.29,-0.03,1721028197854
0.55,-0.32,10.17,-0.00,0.29,-0.03,1721028197857
0.53,-0.29,10.18,-0.00,0.29,-0.03,1721028197860
0.51,-0.28,10.18,-0.01,0.29,-0.03,1721028197863
0.51,-0.31,10.22,-0.01,0.29,-0.03,1721028197866
0.44,-0.31,10.18,-0.00,0.29,-0.03,1721028197876
0.42,-0.30,10.21,-0.00,0.29,-0.03,1721028197879
0.42,-0.31,10.21,-0.00,0.28,-0.03,1721028197882
0.39,-0.31,10.22,-0.00,0.28,-0.03,1721028197885
0.39,-0.32,10.24,-0.00,0.28,-0.03,1721028197888
0.33,-0.30,10.17,-0.01,0.28,-0.03,1721028197898
0.34,-0.30,10.17,-0.01,0.28,-0.03,1721028197901
0.32,-0.31,10.18,-0.01,0.28,-0.03,1721028197904
0.30,-0.30,10.22,-0.00,0.28,-0.03,1721028197907
0.28,-0.30,10.23,-0.00,0.28,-0.03,1721028197910
0.23,-0.34,10.23,-0.00,0.28,-0.03,1721028197920
0.22,-0.33,10.19,-0.00,0.28,-0.03,1721028197923
0.19,-0.34,10.17,-0.00,0.28,-0.03,1721028197926
0.17,-0.33,10.21,-0.00,0.28,-0.03,1721028197929
0.16,-0.31,10.26,-0.00,0.28,-0.03,1721028197932
0.10,-0.29,10.21,-0.00,0.27,-0.03,1721028197942
0.08,-0.29,10.17,-0.00,0.27,-0.03,1721028197945
0.08,-0.29,10.18,-0.00,0.27,-0.03,1721028197948
0.07,-0.29,10.18,-0.00,0.27,-0.03,1721028197951
0.05,-0.27,10.21,-0.00,0.27,-0.03,1721028197954
0.01,-0.28,10.18,-0.00,0.26,-0.02,1721028197964
-0.00,-0.28,10.18,-0.00,0.26,-0.02,1721028197967
-0.01,-0.29,10.18,-0.00,0.26,-0.02,1721028197970
-0.02,-0.32,10.19,-0.00,0.26,-0.02,1721028197973
-0.02,-0.32,10.19,-0.00,0.26,-0.02,1721028197976
-0.04,-0.35,10.23,-0.00,0.25,-0.02,1721028197986
-0.05,-0.35,10.22,-0.00,0.25,-0.02,1721028197989
-0.04,-0.34,10.20,-0.00,0.25,-0.02,1721028197992
-0.03,-0.32,10.21,-0.00,0.25,-0.02,1721028197995
-0.06,-0.32,10.23,-0.00,0.25,-0.02,1721028197998
-0.06,-0.29,10.25,-0.00,0.24,-0.02,1721028198008
-0.08,-0.28,10.23,-0.00,0.24,-0.02,1721028198011
-0.09,-0.28,10.21,-0.00,0.24,-0.02,1721028198014
-0.07,-0.28,10.21,-0.00,0.24,-0.02,1721028198017
-0.08,-0.33,10.21,-0.00,0.23,-0.02,1721028198020
-0.07,-0.28,10.20,-0.00,0.23,-0.02,1721028198030
-0.06,-0.32,10.24,-0.00,0.23,-0.01,1721028198033
-0.06,-0.29,10.25,-0.00,0.23,-0.01,1721028198036
-0.05,-0.27,10.25,-0.00,0.23,-0.01,1721028198039
-0.06,-0.27,10.25,-0.00,0.23,-0.01,1721028198042
-0.06,-0.28,10.29,-0.00,0.23,-0.02,1721028198052
-0.06,-0.29,10.25,-0.00,0.23,-0.02,1721028198055
-0.08,-0.28,10.25,-0.00,0.23,-0.02,1721028198058
-0.09,-0.32,10.22,-0.00,0.23,-0.02,1721028198061
-0.10,-0.32,10.20,-0.00,0.22,-0.02,1721028198064
-0.09,-0.27,10.23,-0.00,0.22,-0.01,1721028198074
-0.09,-0.29,10.21,-0.00,0.22,-0.01,1721028198077
-0.08,-0.30,10.21,0.00,0.22,-0.01,1721028198080
-0.11,-0.29,10.21,0.00,0.22,-0.02,1721028198083
-0.11,-0.29,10.21,0.00,0.22,-0.02,1721028198086
-0.11,-0.28,10.22,0.00,0.22,-0.01,1721028198096
-0.10,-0.29,10.21,0.00,0.22,-0.01,1721028198099
-0.07,-0.28,10.20,-0.00,0.22,-0.01,1721028198102
-0.07,-0.29,10.20,-0.00,0.22,-0.01,1721028198105
-0.08,-0.27,10.21,-0.00,0.21,-0.01,1721028198108
-0.08,-0.29,10.27,-0.00,0.21,-0.02,1721028198118
-0.09,-0.29,10.24,-0.00,0.21,-0.02,1721028198121
-0.07,-0.29,10.21,-0.00,0.21,-0.02,1721028198124
-0.08,-0.31,10.22,0.00,0.21,-0.02,1721028198127
-0.11,-0.33,10.22,0.00,0.21,-0.02,1721028198130
-0.11,-0.30,10.16,-0.00,0.21,-0.02,1721028198140
-0.10,-0.30,10.16,-0.00,0.21,-0.02,1721028198143
-0.11,-0.28,10.17,-0.00,0.21,-0.02,1721028198146
-0.11,-0.29,10.19,-0.00,0.21,-0.02,1721028198149
-0.12,-0.28,10.20,-0.00,0.21,-0.02,1721028198152
-0.17,-0.32,10.25,-0.00,0.21,-0.02,1721028198162
-0.18,-0.29,10.24,0.00,0.21,-0.02,1721028198165
-0.19,-0.31,10.24,0.00,0.21,-0.02,1721028198168
-0.21,-0.32,10.25,-0.00,0.21,-0.02,1721028198171
-0.24,-0.30,10.20,-0.00,0.21,-0.03,1721028198174
-0.35,-0.34,10.16,0.00,0.20,-0.04,1721028198184
-0.36,-0.32,10.17,-0.00,0.20,-0.04,1721028198187
-0.40,-0.29,10.19,-0.00,0.20,-0.04,1721028198190
-0.42,-0.31,10.23,-0.00,0.19,-0.03,1721028198193
-0.46,-0.30,10.22,-0.00,0.19,-0.03,1721028198196
-0.62,-0.33,10.20,0.00,0.19,-0.04,1721028198206
-0.65,-0.30,10.22,0.00,0.19,-0.04,1721028198209
-0.71,-0.32,10.19,0.00,0.19,-0.04,1721028198212
-0.79,-0.33,10.19,-0.00,0.19,-0.05,1721028198215
-0.82,-0.34,10.17,-0.00,0.18,-0.05,1721028198218
-0.99,-0.48,10.30,-0.00,0.17,-0.04,1721028198228
-0.99,-0.44,10.26,-0.00,0.16,-0.03,1721028198231
-0.99,-0.49,10.20,0.00,0.16,-0.03,1721028198234
-1.02,-0.58,10.29,0.00,0.15,-0.02,1721028198237
-1.02,-0.56,10.33,0.00,0.15,-0.01,1721028198240
-0.91,-0.55,10.39,0.00,0.15,0.02,1721028198250
-0.90,-0.49,10.35,0.00,0.15,0.02,1721028198253
-0.83,-0.46,10.38,0.00,0.15,0.03,1721028198256
-0.76,-0.47,10.37,0.01,0.14,0.03,1721028198259
-0.66,-0.44,10.34,0.01,0.13,0.04,1721028198262
-0.34,-0.32,10.19,0.01,0.11,0.04,1721028198272
-0.23,-0.33,10.11,0.01,0.10,0.03,1721028198275
-0.12,-0.31,10.08,0.01,0.10,0.03,1721028198278
-0.05,-0.27,10.08,0.01,0.10,0.02,1721028198281
0.02,-0.24,10.08,0.00,0.10,0.02,1721028198284
0.19,-0.27,10.10,-0.01,0.14,-0.01,1721028198294
0.21,-0.30,10.15,-0.01,0.16,-0.02,1721028198297
0.18,-0.33,10.20,-0.01,0.17,-0.03,1721028198300
0.13,-0.32,10.25,-0.01,0.18,-0.04,1721028198303
0.08,-0.32,10.26,-0.01,0.19,-0.05,1721028198306
-0.13,-0.34,10.25,-0.00,0.19,-0.07,1721028198316
-0.20,-0.37,10.25,0.00,0.18,-0.07,1721028198319
-0.26,-0.38,10.24,0.00,0.17,-0.07,1721028198322
-0.34,-0.37,10.26,0.00,0.16,-0.08,1721028198325
-0.36,-0.36,10.32,0.00,0.16,-0.08,1721028198328
-0.52,-0.36,10.39,0.01,0.16,-0.07,1721028198338
-0.56,-0.33,10.35,0.01,0.16,-0.07,1721028198341
-0.59,-0.34,10.35,0.01,0.17,-0.07,1721028198344
-0.61,-0.34,10.28,0.01,0.17,-0.07,1721028198347
-0.63,-0.34,10.24,0.01,0.17,-0.06,1721028198350
-0.76,-0.33,10.11,0.00,0.16,-0.06,1721028198360
-0.78,-0.34,10.11,0.00,0.15,-0.06,1721028198363
-0.81,-0.36,10.12,-0.00,0.14,-0.05,1721028198366
-0.86,-0.37,10.13,-0.00,0.14,-0.05,1721028198369
-0.87,-0.37,10.18,-0.00,0.13,-0.05,1721028198372
-0.90,-0.41,10.31,0.00,0.13,-0.04,1721028198382
-0.93,-0.41,10.29,0.00,0.13,-0.04,1721028198385
-0.95,-0.41,10.29,0.01,0.13,-0.03,1721028198388
-0.95,-0.45,10.26,0.01,0.13,-0.03,1721028198391
-0.94,-0.45,10.23,0.00,0.13,-0.02,1721028198394
-0.87,-0.42,10.18,0.01,0.12,-0.01,1721028198404
-0.86,-0.44,10.22,0.01,0.11,-0.01,1721028198407
-0.83,-0.43,10.22,0.01,0.10,-0.00,1721028198410
-0.81,-0.41,10.21,0.01,0.10,-0.00,1721028198413
-0.76,-0.41,10.23,0.01,0.09,-0.00,1721028198416
-0.60,-0.36,10.24,0.01,0.09,0.01,1721028198426
-0.56,-0.36,10.27,0.01,0.09,0.01,1721028198429
-0.51,-0.34,10.24,0.01,0.09,0.01,1721028198432
-0.48,-0.34,10.22,0.01,0.09,0.01,1721028198435
-0.44,-0.35,10.24,0.00,0.10,0.01,1721028198438
-0.33,-0.45,10.34,0.00,0.10,-0.00,1721028198448
-0.30,-0.39,10.13,0.00,0.10,-0.00,1721028198451
-0.31,-0.37,10.23,0.00,0.10,-0.00,1721028198454
-0.30,-0.44,10.33,0.01,0.10,-0.01,1721028198457
-0.24,-0.39,10.30,0.00,0.10,-0.01,1721028198460
-0.23,-0.41,10.25,0.00,0.10,-0.03,1721028198470
-0.24,-0.34,10.20,0.01,0.10,-0.03,1721028198473
-0.23,-0.36,10.22,0.01,0.11,-0.04,1721028198476
-0.26,-0.40,10.24,0.01,0.11,-0.04,1721028198479
-0.30,-0.35,10.21,0.00,0.12,-0.04,1721028198482
-0.45,-0.34,10.22,0.01,0.13,-0.06,1721028198492
-0.49,-0.36,10.20,0.01,0.13,-0.06,1721028198495
-0.49,-0.38,10.24,0.01,0.13,-0.06,1721028198498
-0.56,-0.35,10.25,0.01,0.13,-0.06,1721028198501
-0.61,-0.34,10.24,0.01,0.13,-0.07,1721028198504
-0.81,-0.37,10.20,0.01,0.11,-0.07,1721028198514
-0.83,-0.39,10.24,0.01,0.11,-0.07,1721028198517
-0.86,-0.41,10.22,0.01,0.11,-0.06,1721028198520
-0.89,-0.44,10.26,0.01,0.11,-0.06,1721028198523
-0.91,-0.43,10.23,0.01,0.10,-0.06,1721028198526
-0.93,-0.43,10.26,0.01,0.10,-0.04,1721028198536
-0.92,-0.44,10.26,0.01,0.10,-0.04,1721028198539
-0.93,-0.43,10.25,0.01,0.10,-0.03,1721028198542
-0.92,-0.39,10.27,0.01,0.09,-0.03,1721028198545
-0.92,-0.38,10.27,0.01,0.09,-0.03,1721028198548
-0.85,-0.39,10.18,0.01,0.08,-0.03,1721028198558
-0.83,-0.36,10.19,0.01,0.08,-0.03,1721028198561
-0.84,-0.35,10.25,0.01,0.07,-0.03,1721028198564
-0.81,-0.37,10.23,0.01,0.07,-0.03,1721028198567
-0.80,-0.38,10.21,0.01,0.08,-0.03,1721028198570
-0.80,-0.38,10.21,0.01,0.07,-0.02,1721028198580
-0.79,-0.38,10.19,0.01,0.07,-0.02,1721028198583
-0.80,-0.39,10.15,0.01,0.07,-0.02,1721028198586
-0.81,-0.38,10.12,0.01,0.07,-0.02,1721028198589
-0.80,-0.36,10.15,0.01,0.07,-0.02,1721028198592
-0.80,-0.34,10.18,0.00,0.06,-0.02,1721028198602
-0.78,-0.33,10.18,0.00,0.06,-0.01,1721028198605
-0.78,-0.32,10.21,0.00,0.06,-0.01,1721028198608
-0.76,-0.28,10.18,0.00,0.06,-0.01,1721028198611
-0.70,-0.30,10.21,0.00,0.06,-0.01,1721028198614
-0.75,-0.37,10.26,0.00,0.06,-0.01,1721028198624
-0.73,-0.37,10.33,-0.00,0.06,-0.01,1721028198627
-0.75,-0.32,10.25,-0.00,0.06,-0.00,1721028198630
-0.73,-0.37,10.28,0.00,0.06,-0.00,1721028198633
-0.72,-0.41,10.35,0.00,0.06,0.00,1721028198636
-0.65,-0.41,10.35,0.01,0.05,0.00,1721028198646
-0.62,-0.37,10.33,0.01,0.05,0.00,1721028198649
-0.61,-0.31,10.30,0.01,0.04,0.00,1721028198652
-0.54,-0.33,10.33,0.01,0.04,-0.00,1721028198655
-0.51,-0.34,10.28,0.01,0.04,-0.00,1721028198658
-0.45,-0.33,10.32,0.01,0.04,-0.02,1721028198668
-0.44,-0.26,10.24,0.01,0.05,-0.02,1721028198671
-0.45,-0.30,10.24,0.01,0.05,-0.02,1721028198674
-0.46,-0.29,10.28,0.01,0.06,-0.02,1721028198677
-0.48,-0.23,10.20,0.01,0.06,-0.03,1721028198680
-0.56,-0.27,10.10,0.01,0.07,-0.04,1721028198690
-0.61,-0.27,10.13,0.01,0.07,-0.04,1721028198693
-0.63,-0.29,10.16,0.01,0.07,-0.04,1721028198696
-0.67,-0.30,10.16,0.01,0.07,-0.04,1721028198699
-0.69,-0.31,10.18,0.01,0.06,-0.04,1721028198702
-0.77,-0.38,10.26,0.01,0.06,-0.04,1721028198712
-0.78,-0.37,10.31,0.01,0.05,-0.04,1721028198715
-0.79,-0.37,10.32,0.01,0.05,-0.03,1721028198718
-0.81,-0.38,10.31,0.01,0.05,-0.03,1721028198721
-0.82,-0.40,10.30,0.01,0.05,-0.03,1721028198724
-0.72,-0.36,10.28,0.01,0.04,-0.03,1721028198734
-0.70,-0.35,10.26,0.02,0.03,-0.02,1721028198737
-0.72,-0.35,10.25,0.02,0.03,-0.03,1721028198740
-0.70,-0.34,10.22,0.02,0.03,-0.03,1721028198743
-0.69,-0.31,10.22,0.02,0.03,-0.03,1721028198746
-0.66,-0.32,10.22,0.02,0.03,-0.03,1721028198756
-0.65,-0.31,10.23,0.01,0.04,-0.03,1721028198759
-0.64,-0.32,10.19,0.01,0.04,-0.03,1721028198762
-0.64,-0.33,10.18,0.01,0.04,-0.03,1721028198765
-0.64,-0.32,10.17,0.01,0.04,-0.03,1721028198768
-0.66,-0.32,10.25,0.01,0.04,-0.03,1721028198778
-0.67,-0.33,10.24,0.01,0.04,-0.03,1721028198781
-0.68,-0.33,10.23,0.01,0.04,-0.03,1721028198784
-0.67,-0.33,10.22,0.01,0.04,-0.03,1721028198787
-0.67,-0.32,10.26,0.01,0.03,-0.03,1721028198790
-0.60,-0.34,10.24,0.01,0.03,-0.02,1721028198800
-0.59,-0.32,10.24,0.01,0.02,-0.02,1721028198803
-0.56,-0.34,10.23,0.01,0.02,-0.02,1721028198806
-0.52,-0.34,10.27,0.01,0.03,-0.02,1721028198809
-0.51,-0.33,10.28,0.01,0.03,-0.02,1721028198812
-0.46,-0.28,10.23,0.01,0.03,-0.02,1721028198822
-0.45,-0.26,10.20,0.01,0.04,-0.02,1721028198825
-0.46,-0.27,10.22,0.01,0.04,-0.02,1721028198828
-0.47,-0.28,10.25,0.01,0.04,-0.03,1721028198831
-0.48,-0.28,10.22,0.01,0.04,-0.03,1721028198834
-0.55,-0.27,10.22,0.01,0.04,-0.04,1721028198844
-0.56,-0.28,10.24,0.01,0.04,-0.04,1721028198847
-0.59,-0.28,10.21,0.01,0.04,-0.04,1721028198850
-0.66,-0.29,10.19,0.01,0.04,-0.04,1721028198853
-0.67,-0.31,10.21,0.01,0.04,-0.03,1721028198856
-0.69,-0.33,10.22,0.01,0.04,-0.02,1721028198866
-0.68,-0.31,10.23,0.01,0.03,-0.02,1721028198869
-0.71,-0.31,10.25,0.01,0.03,-0.02,1721028198872
-0.70,-0.32,10.23,0.01,0.03,-0.02,1721028198875
-0.68,-0.33,10.18,0.01,0.03,-0.02,1721028198878
-0.64,-0.28,10.22,0.01,0.02,-0.02,1721028198888
-0.61,-0.30,10.25,0.01,0.02,-0.02,1721028198891
-0.57,-0.31,10.27,0.01,0.02,-0.02,1721028198894
-0.54,-0.30,10.25,0.01,0.03,-0.01,1721028198897
-0.52,-0.30,10.25,0.01,0.03,-0.01,1721028198900
-0.41,-0.30,10.22,0.01,0.03,-0.02,1721028198910
-0.42,-0.30,10.20,0.02,0.03,-0.02,1721028198913
-0.45,-0.29,10.22,0.02,0.03,-0.02,1721028198916
-0.45,-0.28,10.24,0.01,0.03,-0.03,1721028198919
-0.44,-0.25,10.18,0.01,0.03,-0.03,1721028198922
-0.42,-0.29,10.27,0.01,0.03,-0.03,1721028198932
-0.41,-0.27,10.27,0.01,0.03,-0.03,1721028198935
-0.38,-0.30,10.28,0.01,0.04,-0.03,1721028198938
-0.40,-0.33,10.26,0.01,0.04,-0.03,1721028198941
-0.39,-0.29,10.26,0.01,0.04,-0.03,1721028198944
-0.39,-0.31,10.25,0.01,0.04,-0.03,1721028198954
-0.38,-0.31,10.26,0.01,0.04,-0.03,1721028198957
-0.37,-0.31,10.19,0.01,0.04,-0.04,1721028198960
-0.38,-0.31,10.19,0.01,0.04,-0.04,1721028198963
-0.37,-0.31,10.19,0.01,0.04,-0.04,1721028198966
-0.34,-0.32,10.24,0.01,0.05,-0.04,1721028198976
-0.34,-0.30,10.27,0.01,0.05,-0.04,1721028198979
-0.36,-0.29,10.26,0.01,0.05,-0.04,1721028198982
-0.35,-0.31,10.25,0.01,0.05,-0.05,1721028198985
-0.34,-0.31,10.21,0.01,0.05,-0.05,1721028198988
-0.37,-0.23,10.22,0.01,0.06,-0.06,1721028198998
-0.38,-0.28,10.20,0.01,0.06,-0.06,1721028199001
-0.40,-0.33,10.23,0.01,0.06,-0.06,1721028199004
-0.43,-0.33,10.22,0.01,0.06,-0.06,1721028199007
-0.45,-0.32,10.21,0.01,0.06,-0.06,1721028199010
-0.48,-0.32,10.20,0.01,0.06,-0.06,1721028199020
-0.50,-0.34,10.21,0.01,0.06,-0.06,1721028199023
-0.54,-0.32,10.22,0.01,0.06,-0.06,1721028199026
-0.54,-0.31,10.22,0.01,0.06,-0.06,1721028199029
-0.53,-0.33,10.22,0.01,0.06,-0.06,1721028199032
-0.58,-0.29,10.20,0.01,0.06,-0.06,1721028199042
-0.57,-0.29,10.17,0.01,0.06,-0.06,1721028199045
-0.58,-0.29,10.15,0.01,0.06,-0.07,1721028199048
-0.60,-0.30,10.16,0.01,0.06,-0.07,1721028199051
-0.62,-0.29,10.18,0.01,0.06,-0.07,1721028199054
-0.73,-0.28,10.20,0.01,0.07,-0.07,1721028199064
-0.77,-0.27,10.21,0.01,0.07,-0.07,1721028199067
-0.81,-0.28,10.21,0.01,0.07,-0.07,1721028199070
-0.82,-0.28,10.21,0.01,0.07,-0.07,1721028199073
-0.84,-0.29,10.19,0.01,0.07,-0.07,1721028199076
-0.90,-0.30,10.25,0.01,0.06,-0.06,1721028199086
-0.92,-0.28,10.22,0.01,0.06,-0.06,1721028199089
-0.94,-0.29,10.22,0.01,0.05,-0.06,1721028199092
-0.94,-0.31,10.21,0.01,0.05,-0.06,1721028199095
-0.93,-0.31,10.23,0.01,0.05,-0.05,1721028199098
-0.85,-0.29,10.24,0.01,0.04,-0.05,1721028199108
-0.80,-0.28,10.26,0.01,0.04,-0.04,1721028199111
-0.75,-0.28,10.23,0.01,0.04,-0.04,1721028199114
-0.73,-0.29,10.25,0.01,0.04,-0.04,1721028199117
-0.72,-0.30,10.25,0.01,0.04,-0.04,1721028199120
-0.62,-0.20,10.26,0.01,0.04,-0.05,1721028199130
-0.60,-0.21,10.20,0.01,0.04,-0.05,1721028199133
-0.58,-0.23,10.19,0.01,0.05,-0.05,1721028199136
-0.58,-0.25,10.20,0.01,0.05,-0.06,1721028199139
-0.60,-0.26,10.24,0.01,0.05,-0.06,1721028199142
-0.70,-0.27,10.23,0.01,0.06,-0.07,1721028199152
-0.72,-0.28,10.24,0.01,0.06,-0.06,1721028199155
-0.75,-0.27,10.24,0.01,0.06,-0.06,1721028199158
-0.75,-0.29,10.23,0.01,0.06,-0.06,1721028199161
-0.78,-0.29,10.24,0.01,0.05,-0.05,1721028199164
-0.73,-0.24,10.21,0.01,0.04,-0.05,1721028199174
-0.72,-0.25,10.24,0.01,0.04,-0.05,1721028199177
-0.72,-0.23,10.26,0.01,0.03,-0.05,1721028199180
-0.70,-0.22,10.25,0.01,0.03,-0.05,1721028199183
-0.67,-0.23,10.28,0.01,0.03,-0.05,1721028199186
-0.50,-0.28,10.26,0.01,0.03,-0.04,1721028199196
-0.49,-0.28,10.26,0.01,0.04,-0.05,1721028199199
-0.47,-0.26,10.27,0.02,0.04,-0.05,1721028199202
-0.45,-0.24,10.24,0.02,0.04,-0.05,1721028199205
-0.43,-0.25,10.27,0.02,0.05,-0.05,1721028199208
-0.42,-0.27,10.19,0.02,0.05,-0.07,1721028199218
-0.44,-0.27,10.19,0.02,0.05,-0.07,1721028199221
-0.47,-0.26,10.18,0.02,0.06,-0.08,1721028199224
-0.48,-0.23,10.17,0.02,0.06,-0.08,1721028199227
-0.50,-0.22,10.18,0.02,0.06,-0.09,1721028199230
-0.63,-0.24,10.18,0.01,0.06,-0.09,1721028199240
-0.67,-0.25,10.20,0.01,0.07,-0.09,1721028199243
-0.72,-0.24,10.22,0.01,0.07,-0.09,1721028199246
-0.74,-0.23,10.22,0.01,0.07,-0.09,1721028199249
-0.80,-0.25,10.17,0.01,0.07,-0.09,1721028199252
-0.90,-0.27,10.20,0.01,0.06,-0.08,1721028199262
-0.93,-0.31,10.22,0.01,0.06,-0.08,1721028199265
-0.95,-0.30,10.22,0.01,0.05,-0.08,1721028199268
-1.00,-0.30,10.22,0.01,0.05,-0.08,1721028199271
-0.99,-0.34,10.27,0.01,0.04,-0.08,1721028199274
-1.03,-0.40,10.34,0.01,0.04,-0.08,1721028199284
-1.03,-0.41,10.33,0.01,0.05,-0.07,1721028199287
-1.05,-0.38,10.28,0.02,0.05,-0.07,1721028199290
-1.07,-0.35,10.26,0.02,0.05,-0.07,1721028199293
-1.08,-0.36,10.31,0.02,0.04,-0.06,1721028199296
-1.10,-0.37,10.26,0.02,0.03,-0.06,1721028199306
-1.06,-0.36,10.20,0.02,0.03,-0.06,1721028199309
-1.07,-0.34,10.20,0.02,0.02,-0.06,1721028199312
-1.05,-0.34,10.24,0.02,0.02,-0.06,1721028199315
-1.03,-0.34,10.24,0.02,0.01,-0.06,1721028199318
-0.96,-0.36,10.20,0.02,0.01,-0.05,1721028199328
-0.92,-0.35,10.18,0.02,0.01,-0.05,1721028199331
-0.89,-0.35,10.17,0.02,0.01,-0.05,1721028199334
-0.85,-0.34,10.15,0.02,0.01,-0.05,1721028199337
-0.83,-0.35,10.14,0.02,0.01,-0.05,1721028199340
-0.76,-0.32,10.17,0.02,0.01,-0.06,1721028199350
-0.73,-0.31,10.17,0.02,0.01,-0.06,1721028199353
-0.74,-0.34,10.17,0.02,0.01,-0.06,1721028199356
-0.74,-0.34,10.23,0.02,0.02,-0.07,1721028199359
-0.74,-0.36,10.28,0.02,0.02,-0.07,1721028199362
-0.82,-0.39,10.21,0.02,0.02,-0.08,1721028199372
-0.86,-0.39,10.21,0.02,0.02,-0.08,1721028199375
-0.91,-0.40,10.22,0.02,0.02,-0.08,1721028199378
-0.95,-0.42,10.23,0.02,0.02,-0.08,1721028199381
-0.96,-0.43,10.25,0.02,0.02,-0.08,1721028199384
-1.01,-0.46,10.28,0.02,0.01,-0.07,1721028199394
-0.85,-0.52,10.28,0.02,0.00,-0.06,1721028199397
-0.81,-0.48,10.23,0.02,-0.01,-0.04,1721028199400
-0.85,-0.31,10.37,0.02,-0.02,-0.03,1721028199403
-0.85,-0.24,10.42,0.02,-0.02,-0.04,1721028199406
-0.71,-0.43,10.06,0.03,-0.02,-0.07,1721028199416
-0.73,-0.34,10.15,0.03,-0.01,-0.08,1721028199419
-0.74,-0.38,10.18,0.03,-0.00,-0.09,1721028199422
-0.71,-0.42,10.09,0.02,0.01,-0.09,1721028199425
-0.73,-0.45,10.03,0.01,0.02,-0.08,1721028199428
-0.87,-0.39,10.19,0.01,0.03,-0.07,1721028199438
-0.88,-0.48,10.16,0.02,0.03,-0.08,1721028199441
-0.92,-0.46,10.14,0.02,0.02,-0.07,1721028199444
-1.00,-0.40,10.18,0.02,0.02,-0.07,1721028199447
-1.11,-0.37,10.22,0.02,0.01,-0.08,1721028199450
-1.21,-0.54,10.13,0.02,-0.01,-0.09,1721028199460
-1.25,-0.54,10.14,0.02,-0.02,-0.07,1721028199463
-1.30,-0.53,10.16,0.02,-0.02,-0.06,1721028199466
-1.30,-0.50,10.20,0.02,-0.03,-0.05,1721028199469
-1.32,-0.50,10.21,0.02,-0.03,-0.04,1721028199472
-1.18,-0.46,10.24,0.02,-0.04,-0.02,1721028199487
-1.14,-0.48,10.20,0.02,-0.04,-0.02,1721028199490
-1.15,-0.47,10.15,0.02,-0.05,-0.01,1721028199493
-1.12,-0.43,10.17,0.02,-0.05,-0.01,1721028199496
-1.09,-0.41,10.21,0.02,-0.05,-0.01,1721028199499
-0.99,-0.47,10.14,0.02,-0.06,0.01,1721028199509
-0.98,-0.47,10.19,0.02,-0.06,0.01,1721028199512
-0.96,-0.45,10.18,0.02,-0.06,0.01,1721028199515
-0.94,-0.47,10.16,0.02,-0.06,0.01,1721028199518
-0.90,-0.46,10.14,0.02,-0.06,0.01,1721028199521
-0.83,-0.45,10.18,0.02,-0.06,0.01,1721028199531
-0.80,-0.47,10.17,0.02,-0.07,0.01,1721028199534
-0.80,-0.51,10.15,0.02,-0.07,0.02,1721028199537
-0.75,-0.51,10.16,0.02,-0.07,0.02,1721028199540
-0.71,-0.49,10.18,0.02,-0.07,0.03,1721028199543
-0.53,-0.44,10.18,0.02,-0.08,0.03,1721028199553
-0.47,-0.45,10.19,0.02,-0.08,0.02,1721028199556
-0.45,-0.46,10.18,0.02,-0.08,0.02,1721028199559
-0.40,-0.45,10.19,0.02,-0.08,0.02,1721028199562
-0.34,-0.46,10.18,0.02,-0.08,0.02,1721028199565
-0.24,-0.42,10.20,0.02,-0.07,0.02,1721028199575
-0.20,-0.42,10.19,0.01,-0.06,0.02,1721028199578
-0.23,-0.37,10.24,0.01,-0.06,0.02,1721028199581
-0.18,-0.39,10.28,0.01,-0.06,0.01,1721028199584
-0.14,-0.42,10.29,0.01,-0.06,0.00,1721028199587
-0.12,-0.42,10.45,0.01,-0.05,-0.00,1721028199597
-0.13,-0.37,10.45,0.02,-0.05,-0.01,1721028199600
-0.09,-0.37,10.44,0.02,-0.05,-0.01,1721028199603
-0.10,-0.38,10.36,0.02,-0.05,-0.01,1721028199606
-0.11,-0.40,10.28,0.02,-0.05,-0.01,1721028199609
-0.14,-0.35,10.15,0.02,-0.05,-0.03,1721028199619
-0.15,-0.35,10.12,0.02,-0.05,-0.03,1721028199622
-0.20,-0.37,10.11,0.02,-0.05,-0.03,1721028199625
-0.24,-0.35,10.14,0.01,-0.04,-0.04,1721028199628
-0.23,-0.38,10.10,0.01,-0.03,-0.04,1721028199631
-0.31,-0.41,10.13,0.02,-0.01,-0.04,1721028199641
-0.35,-0.40,10.19,0.02,-0.01,-0.04,1721028199644
-0.34,-0.42,10.22,0.02,-0.01,-0.04,1721028199647
-0.37,-0.45,10.16,0.02,-0.01,-0.04,1721028199650
-0.45,-0.45,10.17,0.01,-0.01,-0.04,1721028199653
-0.41,-0.43,10.21,0.01,-0.02,-0.04,1721028199656
-0.45,-0.38,10.37,0.01,-0.03,-0.04,1721028199666
-0.46,-0.39,10.43,0.01,-0.03,-0.04,1721028199669
-0.48,-0.45,10.39,0.01,-0.03,-0.04,1721028199672
-0.47,-0.51,10.38,0.02,-0.02,-0.04,1721028199675
-0.48,-0.46,10.34,0.02,-0.02,-0.04,1721028199678
-0.58,-0.34,10.27,0.02,-0.02,-0.03,1721028199688
-0.58,-0.35,10.21,0.01,-0.02,-0.03,1721028199691
-0.61,-0.39,10.18,0.01,-0.02,-0.03,1721028199694
-0.63,-0.45,10.17,0.01,-0.03,-0.03,1721028199697
-0.64,-0.44,10.14,0.01,-0.03,-0.02,1721028199700
-0.58,-0.37,10.25,0.02,-0.04,-0.01,1721028199710
-0.58,-0.39,10.24,0.02,-0.04,-0.01,1721028199713
-0.55,-0.45,10.17,0.01,-0.04,-0.00,1721028199716
-0.48,-0.48,10.14,0.01,-0.04,0.00,1721028199719
-0.46,-0.48,10.11,0.02,-0.04,0.01,1721028199722
-0.30,-0.35,10.20,0.02,-0.04,0.01,1721028199732
-0.23,-0.33,10.24,0.01,-0.04,0.01,1721028199735
-0.21,-0.33,10.23,0.01,-0.04,0.01,1721028199738
-0.21,-0.35,10.27,0.01,-0.04,0.01,1721028199741
-0.19,-0.39,10.31,0.01,-0.04,0.00,1721028199744
-0.10,-0.29,10.33,0.02,-0.02,-0.00,1721028199754
-0.11,-0.30,10.30,0.02,-0.02,-0.01,1721028199757
-0.09,-0.34,10.28,0.02,-0.02,-0.01,1721028199760
-0.08,-0.33,10.26,0.01,-0.02,-0.01,1721028199763
-0.11,-0.34,10.26,0.01,-0.02,-0.01,1721028199766
-0.08,-0.33,10.27,0.01,-0.02,-0.01,1721028199776
-0.06,-0.34,10.25,0.01,-0.02,-0.01,1721028199779
-0.08,-0.40,10.27,0.01,-0.02,-0.01,1721028199782
-0.06,-0.42,10.25,0.01,-0.01,-0.01,1721028199785
-0.02,-0.44,10.19,0.02,-0.01,-0.01,1721028199788
0.04,-0.33,10.18,0.02,-0.01,-0.01,1721028199798
0.04,-0.35,10.18,0.01,-0.01,-0.01,1721028199801
0.05,-0.35,10.16,0.01,-0.01,-0.01,1721028199804
0.07,-0.34,10.09,0.01,-0.00,-0.01,1721028199807
0.10,-0.34,10.16,0.01,-0.00,-0.01,1721028199810
0.13,-0.29,10.30,0.01,0.01,-0.02,1721028199820
0.11,-0.29,10.30,0.01,0.02,-0.02,1721028199823
0.11,-0.28,10.30,0.01,0.02,-0.03,1721028199826
0.10,-0.33,10.27,0.01,0.02,-0.03,1721028199829
0.06,-0.36,10.33,0.01,0.03,-0.03,1721028199832
0.00,-0.36,10.33,0.01,0.03,-0.03,1721028199842
-0.03,-0.34,10.37,0.01,0.03,-0.03,1721028199845
-0.06,-0.30,10.36,0.01,0.03,-0.03,1721028199848
-0.06,-0.35,10.34,0.01,0.03,-0.03,1721028199851
-0.03,-0.45,10.31,0.01,0.03,-0.03,1721028199854
-0.07,-0.34,10.25,0.02,0.03,-0.02,1721028199864
-0.07,-0.42,10.25,0.02,0.03,-0.02,1721028199867
-0.06,-0.39,10.31,0.01,0.03,-0.01,1721028199870
-0.06,-0.27,10.27,0.01,0.03,-0.01,1721028199873
-0.06,-0.31,10.22,0.02,0.03,-0.02,1721028199876
-0.01,-0.27,10.16,0.01,0.03,-0.01,1721028199886
0.01,-0.34,10.13,0.01,0.04,-0.02,1721028199889
0.07,-0.42,10.10,0.01,0.04,-0.02,1721028199892
0.06,-0.38,10.18,0.01,0.04,-0.01,1721028199895
0.05,-0.27,10.24,0.01,0.04,-0.02,1721028199898
0.05,-0.34,10.19,0.01,0.06,-0.03,1721028199908
0.01,-0.27,10.25,0.01,0.06,-0.03,1721028199911
-0.03,-0.23,10.29,0.01,0.07,-0.03,1721028199914
-0.08,-0.29,10.28,0.01,0.07,-0.04,1721028199917
-0.10,-0.37,10.22,0.01,0.07,-0.04,1721028199920
-0.14,-0.25,10.34,0.00,0.08,-0.03,1721028199930
-0.16,-0.32,10.35,0.00,0.08,-0.02,1721028199933
-0.17,-0.36,10.32,0.00,0.08,-0.02,1721028199936
-0.17,-0.36,10.32,0.01,0.07,-0.02,1721028199939
-0.19,-0.35,10.30,0.01,0.07,-0.02,1721028199942
-0.12,-0.27,10.21,0.01,0.06,-0.01,1721028199952
-0.11,-0.27,10.21,0.01,0.06,-0.01,1721028199955
-0.08,-0.31,10.20,0.01,0.06,-0.01,1721028199958
-0.04,-0.36,10.19,0.00,0.06,-0.01,1721028199961
-0.02,-0.34,10.25,0.01,0.06,-0.01,1721028199964
0.03,-0.24,10.25,0.01,0.08,-0.03,1721028199974
0.02,-0.24,10.19,0.01,0.09,-0.04,1721028199977
-0.02,-0.24,10.20,0.01,0.10,-0.04,1721028199980
-0.06,-0.23,10.15,0.01,0.10,-0.04,1721028199983
-0.12,-0.23,10.13,0.01,0.11,-0.05,1721028199986
-0.26,-0.21,10.17,0.00,0.11,-0.04,1721028199996
-0.28,-0.21,10.21,0.00,0.11,-0.04,1721028199999
-0.31,-0.22,10.24,0.00,0.11,-0.04,1721028200002
-0.35,-0.26,10.28,0.00,0.11,-0.04,1721028200005
-0.35,-0.26,10.26,0.00,0.11,-0.04,1721028200008
-0.44,-0.29,10.27,0.01,0.10,-0.03,1721028200018
-0.43,-0.28,10.26,0.00,0.10,-0.02,1721028200021
-0.43,-0.33,10.28,0.00,0.10,-0.02,1721028200024
-0.41,-0.31,10.30,0.00,0.09,-0.01,1721028200027
-0.37,-0.28,10.29,-0.00,0.09,-0.01,1721028200030
-0.25,-0.27,10.30,0.00,0.09,-0.00,1721028200040
-0.21,-0.21,10.37,0.00,0.09,-0.01,1721028200043
-0.19,-0.20,10.32,0.01,0.09,-0.01,1721028200046
-0.16,-0.26,10.25,0.01,0.10,-0.02,1721028200049
-0.14,-0.26,10.22,0.01,0.10,-0.03,1721028200052
-0.16,-0.16,10.11,0.01,0.10,-0.04,1721028200062
-0.18,-0.20,10.07,0.01,0.11,-0.04,1721028200065
-0.19,-0.21,10.10,0.01,0.11,-0.04,1721028200068
-0.21,-0.16,10.14,0.00,0.12,-0.04,1721028200071
-0.23,-0.13,10.18,0.00,0.12,-0.04,1721028200074
-0.38,-0.18,10.18,0.00,0.14,-0.06,1721028200084
-0.39,-0.22,10.22,0.00,0.14,-0.05,1721028200087
-0.41,-0.26,10.24,-0.00,0.14,-0.04,1721028200090
-0.47,-0.19,10.36,-0.00,0.14,-0.03,1721028200093
-0.47,-0.22,10.28,-0.00,0.13,-0.03,1721028200096
-0.41,-0.27,10.25,0.01,0.11,-0.03,1721028200106
-0.40,-0.20,10.32,0.01,0.10,-0.04,1721028200109
-0.36,-0.18,10.36,0.01,0.09,-0.04,1721028200112
-0.36,-0.20,10.30,0.01,0.09,-0.05,1721028200115
-0.31,-0.27,10.27,0.01,0.09,-0.05,1721028200118
-0.37,-0.19,10.31,0.01,0.12,-0.06,1721028200128
-0.39,-0.21,10.30,0.01,0.13,-0.07,1721028200131
-0.37,-0.32,10.24,0.01,0.14,-0.07,1721028200134
-0.40,-0.30,10.16,0.01,0.14,-0.06,1721028200137
-0.45,-0.21,10.14,0.01,0.14,-0.06,1721028200140
-0.57,-0.29,10.03,0.01,0.13,-0.07,1721028200150
-0.60,-0.28,10.07,0.01,0.12,-0.06,1721028200153
-0.67,-0.20,10.14,0.00,0.12,-0.06,1721028200156
-0.71,-0.16,10.18,0.00,0.12,-0.07,1721028200159
-0.67,-0.30,10.14,0.01,0.12,-0.07,1721028200162
-0.66,-0.27,10.28,0.00,0.13,-0.04,1721028200172
-0.60,-0.29,10.25,0.00,0.13,-0.04,1721028200175
-0.56,-0.34,10.19,0.00,0.13,-0.04,1721028200178
-0.55,-0.32,10.21,0.01,0.13,-0.03,1721028200181
-0.48,-0.27,10.28,0.01,0.12,-0.03,1721028200184
-0.47,-0.31,10.23,0.01,0.11,-0.05,1721028200194
-0.47,-0.27,10.25,0.01,0.11,-0.05,1721028200197
-0.49,-0.25,10.22,0.01,0.11,-0.06,1721028200200
-0.47,-0.33,10.23,0.01,0.12,-0.06,1721028200203
-0.46,-0.37,10.20,0.01,0.13,-0.05,1721028200206
-0.50,-0.23,10.24,0.00,0.14,-0.05,1721028200216
-0.44,-0.28,10.12,0.00,0.14,-0.06,1721028200219
-0.40,-0.27,10.06,0.01,0.13,-0.06,1721028200222
-0.39,-0.23,10.09,0.01,0.11,-0.07,1721028200225
-0.33,-0.14,10.14,0.01,0.09,-0.08,1721028200228
-0.20,-0.23,10.17,0.00,0.05,-0.13,1721028200238
-0.19,-0.23,10.21,0.00,0.05,-0.14,1721028200241
-0.19,-0.20,10.26,0.01,0.06,-0.16,1721028200244
-0.20,-0.20,10.30,0.01,0.07,-0.18,1721028200247
-0.22,-0.23,10.32,0.01,0.08,-0.19,1721028200250
-0.59,-0.21,10.45,0.01,0.14,-0.24,1721028200260
-0.76,-0.29,10.43,0.02,0.15,-0.25,1721028200263
-0.88,-0.38,10.36,0.02,0.15,-0.26,1721028200266
-1.04,-0.36,10.33,0.03,0.14,-0.26,1721028200269
-1.23,-0.27,10.37,0.03,0.13,-0.26,1721028200272
-1.71,-0.30,10.19,0.04,0.08,-0.28,1721028200282
-1.87,-0.34,10.12,0.04,0.06,-0.28,1721028200285
-2.02,-0.35,10.09,0.05,0.06,-0.28,1721028200288
-2.13,-0.42,10.06,0.05,0.05,-0.28,1721028200291
-2.22,-0.45,9.99,0.05,0.06,-0.27,1721028200294
-2.66,-0.42,10.01,0.03,0.09,-0.18,1721028200304
-2.72,-0.52,9.95,0.01,0.11,-0.15,1721028200307
-2.75,-0.60,9.88,-0.00,0.12,-0.11,1721028200310
-2.78,-0.60,9.90,-0.01,0.12,-0.06,1721028200313
-2.78,-0.56,9.98,-0.02,0.11,-0.03,1721028200316
-2.45,-0.52,10.23,0.00,0.02,0.03,1721028200326
-2.29,-0.50,10.26,0.01,-0.01,0.05,1721028200329
-2.12,-0.42,10.29,0.02,-0.05,0.06,1721028200332
-1.96,-0.36,10.30,0.03,-0.07,0.07,1721028200335
-1.82,-0.36,10.27,0.03,-0.08,0.07,1721028200338
-1.15,-0.38,10.32,0.01,-0.06,0.07,1721028200348
-1.06,-0.30,10.41,0.01,-0.03,0.07,1721028200351
-0.97,-0.30,10.42,0.00,0.01,0.06,1721028200354
-0.93,-0.32,10.40,0.00,0.05,0.05,1721028200357
-0.90,-0.35,10.36,0.01,0.07,0.04,1721028200360
-1.04,-0.32,10.13,0.02,0.10,0.01,1721028200370
-1.08,-0.28,10.07,0.02,0.09,0.01,1721028200373
-1.10,-0.23,9.98,0.02,0.06,0.00,1721028200376
-1.14,-0.29,10.01,0.02,0.03,-0.01,1721028200379
-1.14,-0.36,10.01,0.01,0.02,-0.01,1721028200382
-1.14,-0.51,10.15,0.02,-0.03,-0.01,1721028200392
-1.11,-0.47,10.21,0.02,-0.02,0.00,1721028200395
-1.00,-0.47,10.27,0.02,-0.01,0.01,1721028200398
-0.94,-0.46,10.31,0.02,0.00,0.02,1721028200401
-0.90,-0.44,10.29,0.02,0.02,0.04,1721028200404
-0.54,-0.45,10.18,0.02,0.02,0.05,1721028200414
-0.45,-0.43,10.18,0.02,0.01,0.06,1721028200417
-0.34,-0.36,10.20,0.02,-0.00,0.06,1721028200420
-0.29,-0.29,10.20,0.02,-0.01,0.06,1721028200423
-0.26,-0.20,10.23,0.02,-0.02,0.04,1721028200426
-0.11,-0.50,10.22,0.01,0.00,-0.03,1721028200436
-0.10,-0.48,10.27,0.02,0.01,-0.04,1721028200439
-0.12,-0.42,10.32,0.02,0.03,-0.03,1721028200442
-0.15,-0.34,10.37,0.02,0.04,-0.03,1721028200445
-0.19,-0.35,10.40,0.02,0.07,-0.04,1721028200448
-0.48,-0.50,10.02,0.03,0.09,-0.06,1721028200458
-0.57,-0.41,10.00,0.02,0.09,-0.07,1721028200461
-0.65,-0.37,9.97,0.02,0.08,-0.08,1721028200464
-0.72,-0.37,10.00,0.02,0.07,-0.08,1721028200467
-0.81,-0.41,10.08,0.01,0.06,-0.08,1721028200470
-0.96,-0.56,10.19,0.01,0.03,-0.05,1721028200480
-0.98,-0.58,10.23,0.01,0.03,-0.03,1721028200483
-0.98,-0.53,10.23,0.01,0.03,-0.02,1721028200486
-0.95,-0.48,10.24,0.02,0.03,-0.01,1721028200489
-0.90,-0.43,10.26,0.02,0.03,0.00,1721028200492
-0.70,-0.45,10.11,0.00,0.02,0.00,1721028200502
-0.64,-0.45,10.12,0.00,0.02,0.00,1721028200505
-0.59,-0.43,10.13,0.01,0.02,0.00,1721028200508
-0.89,-0.42,10.18,0.01,0.00,-0.02,1721028201143
-0.89,-0.43,10.19,0.01,0.01,-0.02,1721028201146
-0.88,-0.43,10.18,0.01,0.01,-0.02,1721028201149
-0.89,-0.42,10.19,0.01,0.01,-0.02,1721028201152
-0.89,-0.42,10.18,0.01,0.01,-0.02,1721028201155
-0.89,-0.42,10.24,0.01,0.01,-0.02,1721028201158
-0.89,-0.44,10.23,0.02,0.01,-0.02,1721028201161
-0.90,-0.43,10.21,0.02,0.01,-0.03,1721028201164
-0.89,-0.42,10.19,0.02,0.01,-0.03,1721028201167
-0.96,-0.42,10.20,0.01,0.01,-0.03,1721028201176
-0.96,-0.40,10.18,0.01,0.00,-0.03,1721028201179
-0.97,-0.40,10.19,0.01,0.00,-0.03,1721028201182
-0.99,-0.42,10.17,0.01,0.00,-0.03,1721028201185
-1.01,-0.42,10.18,0.01,0.00,-0.02,1721028201188
-0.98,-0.40,10.20,0.01,0.00,-0.02,1721028201198
-1.00,-0.40,10.23,0.01,0.00,-0.02,1721028201201
-1.03,-0.40,10.21,0.01,0.00,-0.02,1721028201204
-1.02,-0.39,10.20,0.01,0.00,-0.02,1721028201207
-1.03,-0.38,10.17,0.01,-0.00,-0.02,1721028201210
-0.96,-0.40,10.18,0.01,-0.00,-0.02,1721028201220
-0.97,-0.40,10.22,0.01,-0.00,-0.02,1721028201223
-0.99,-0.40,10.22,0.02,-0.01,-0.02,1721028201226
-1.00,-0.37,10.21,0.02,-0.01,-0.02,1721028201229
-1.00,-0.35,10.22,0.02,-0.01,-0.02,1721028201232
-0.95,-0.37,10.21,0.01,-0.01,-0.02,1721028201242
-0.96,-0.35,10.21,0.01,-0.00,-0.02,1721028201245
-0.94,-0.35,10.20,0.01,-0.01,-0.02,1721028201248
-0.96,-0.35,10.20,0.01,-0.01,-0.02,1721028201251
-0.96,-0.34,10.20,0.01,-0.01,-0.02,1721028201254
-0.92,-0.38,10.15,0.02,-0.01,-0.01,1721028201264
-0.92,-0.37,10.16,0.02,-0.01,-0.01,1721028201267
-0.90,-0.35,10.17,0.01,-0.01,-0.01,1721028201270
-0.88,-0.34,10.19,0.01,-0.01,-0.01,1721028201273
-0.86,-0.34,10.20,0.01,-0.01,-0.01,1721028201276
-0.82,-0.33,10.19,0.01,-0.01,-0.02,1721028201286
-0.80,-0.32,10.20,0.01,-0.01,-0.02,1721028201289
-0.79,-0.31,10.17,0.01,-0.01,-0.02,1721028201292
-0.79,-0.30,10.18,0.01,-0.01,-0.02,1721028201295
-0.79,-0.31,10.19,0.01,-0.01,-0.02,1721028201298
-0.76,-0.36,10.23,0.01,-0.01,-0.02,1721028201308
-0.78,-0.34,10.25,0.01,-0.01,-0.02,1721028201311
-0.80,-0.31,10.20,0.02,-0.01,-0.02,1721028201314
-0.79,-0.34,10.21,0.02,-0.01,-0.02,1721028201317
-0.79,-0.34,10.21,0.02,-0.00,-0.02,1721028201320
-0.79,-0.34,10.26,0.02,-0.00,-0.02,1721028201330
-0.80,-0.34,10.21,0.02,-0.01,-0.02,1721028201333
-0.79,-0.33,10.20,0.02,-0.01,-0.02,1721028201336
-0.79,-0.33,10.20,0.02,-0.01,-0.02,1721028201339
-0.76,-0.35,10.23,0.02,-0.00,-0.02,1721028201342
-0.76,-0.35,10.19,0.02,-0.01,-0.02,1721028201352
-0.76,-0.35,10.18,0.02,-0.01,-0.02,1721028201355
-0.74,-0.33,10.21,0.02,-0.00,-0.02,1721028201358
-0.74,-0.36,10.20,0.02,-0.00,-0.02,1721028201361
-0.75,-0.37,10.18,0.02,-0.01,-0.02,1721028201364
-0.74,-0.35,10.17,0.02,-0.00,-0.02,1721028201374
-0.74,-0.34,10.18,0.02,0.00,-0.02,1721028201377
-0.71,-0.33,10.17,0.02,-0.00,-0.02,1721028201380
-0.72,-0.33,10.18,0.02,-0.00,-0.02,1721028201383
-0.70,-0.33,10.18,0.02,0.00,-0.02,1721028201386
-0.75,-0.33,10.26,0.01,0.00,-0.02,1721028201396
-0.77,-0.33,10.26,0.02,0.00,-0.03,1721028201399
-0.75,-0.32,10.27,0.02,0.00,-0.03,1721028201402
-0.72,-0.32,10.28,0.02,0.00,-0.03,1721028201405
-0.73,-0.32,10.29,0.02,0.00,-0.03,1721028201408
-0.76,-0.32,10.25,0.02,0.00,-0.03,1721028201418
-0.73,-0.34,10.23,0.02,0.00,-0.03,1721028201421
-0.74,-0.30,10.22,0.02,0.00,-0.03,1721028201424
-0.74,-0.29,10.23,0.02,0.00,-0.03,1721028201427
-0.74,-0.31,10.21,0.02,0.00,-0.03,1721028201430
-0.76,-0.32,10.15,0.02,0.00,-0.03,1721028201440
-0.77,-0.31,10.16,0.02,0.00,-0.03,1721028201443
-0.75,-0.31,10.17,0.02,0.00,-0.03,1721028201446
-0.75,-0.31,10.18,0.02,0.00,-0.03,1721028201449
-0.75,-0.30,10.19,0.02,0.00,-0.03,1721028201452
-0.75,-0.31,10.22,0.02,0.01,-0.03,1721028201462
-0.76,-0.33,10.20,0.02,0.01,-0.03,1721028201465
-0.74,-0.32,10.18,0.02,0.01,-0.03,1721028201468
-0.74,-0.31,10.19,0.02,0.01,-0.03,1721028201471
-0.74,-0.31,10.21,0.02,0.01,-0.03,1721028201474
-0.74,-0.34,10.27,0.02,0.01,-0.03,1721028201489
-0.74,-0.35,10.26,0.02,0.01,-0.03,1721028201492
-0.73,-0.34,10.23,0.02,0.01,-0.03,1721028201495
-0.74,-0.34,10.24,0.02,0.01,-0.03,1721028201498
-0.75,-0.34,10.25,0.02,0.01,-0.03,1721028201501
-0.77,-0.34,10.21,0.02,0.01,-0.03,1721028201511
-0.77,-0.35,10.17,0.02,0.01,-0.03,1721028201514
-0.77,-0.35,10.19,0.02,0.01,-0.03,1721028201517
-0.77,-0.35,10.20,0.02,0.01,-0.02,1721028201520
-0.75,-0.38,10.18,0.02,0.01,-0.02,1721028201523
-0.72,-0.36,10.18,0.02,0.01,-0.02,1721028201533
-0.70,-0.36,10.15,0.02,0.00,-0.02,1721028201536
-0.68,-0.39,10.17,0.02,0.01,-0.02,1721028201539
-0.66,-0.38,10.18,0.02,0.01,-0.02,1721028201542
-0.64,-0.37,10.18,0.02,0.01,-0.02,1721028201545
-0.64,-0.35,10.20,0.01,0.01,-0.02,1721028201555
-0.65,-0.37,10.23,0.01,0.01,-0.02,1721028201558
-0.66,-0.37,10.26,0.01,0.01,-0.03,1721028201561
-0.65,-0.37,10.23,0.01,0.02,-0.03,1721028201564
-0.67,-0.37,10.20,0.02,0.02,-0.03,1721028201567
-0.69,-0.34,10.15,0.01,0.02,-0.03,1721028201577
-0.70,-0.33,10.20,0.01,0.02,-0.03,1721028201580
-0.72,-0.35,10.24,0.01,0.02,-0.03,1721028201583
-0.73,-0.37,10.28,0.01,0.02,-0.03,1721028201586
-0.71,-0.35,10.22,0.01,0.02,-0.03,1721028201589
-0.73,-0.33,10.18,0.01,0.02,-0.03,1721028201599
-0.75,-0.33,10.21,0.01,0.02,-0.03,1721028201602
-0.75,-0.36,10.23,0.01,0.02,-0.03,1721028201605
-0.77,-0.35,10.21,0.01,0.02,-0.03,1721028201608
-0.76,-0.35,10.23,0.01,0.02,-0.03,1721028201611
-0.77,-0.32,10.23,0.01,0.02,-0.03,1721028201621
-0.79,-0.33,10.21,0.01,0.02,-0.03,1721028201624
-0.79,-0.33,10.20,0.01,0.02,-0.03,1721028201627
-0.75,-0.34,10.18,0.01,0.01,-0.03,1721028201630
-0.76,-0.33,10.19,0.01,0.02,-0.03,1721028201633
-0.79,-0.31,10.22,0.01,0.02,-0.03,1721028201643
-0.79,-0.30,10.22,0.01,0.02,-0.03,1721028201646
-0.76,-0.31,10.20,0.01,0.02,-0.03,1721028201649
-0.78,-0.31,10.19,0.01,0.02,-0.03,1721028201652
-0.79,-0.31,10.18,0.01,0.02,-0.02,1721028201655
-0.78,-0.30,10.19,0.01,0.02,-0.02,1721028201665
-0.75,-0.30,10.20,0.01,0.02,-0.02,1721028201668
-0.74,-0.30,10.16,0.01,0.02,-0.02,1721028201671
-0.73,-0.29,10.15,0.01,0.02,-0.02,1721028201674
-0.74,-0.30,10.19,0.01,0.02,-0.02,1721028201677
-0.73,-0.32,10.24,0.01,0.02,-0.02,1721028201687
-0.72,-0.31,10.25,0.01,0.02,-0.02,1721028201690
-0.70,-0.30,10.26,0.01,0.02,-0.02,1721028201693
-0.69,-0.29,10.25,0.01,0.02,-0.02,1721028201696
-0.69,-0.30,10.23,0.01,0.02,-0.02,1721028201699
-0.68,-0.27,10.26,0.01,0.02,-0.03,1721028201709
-0.67,-0.29,10.25,0.01,0.02,-0.03,1721028201712
-0.67,-0.28,10.25,0.01,0.03,-0.03,1721028201715
-0.69,-0.32,10.23,0.01,0.03,-0.03,1721028201718
-0.69,-0.32,10.22,0.01,0.03,-0.03,1721028201721
-0.73,-0.31,10.17,0.01,0.03,-0.03,1721028201731
-0.74,-0.31,10.14,0.01,0.03,-0.03,1721028201734
-0.73,-0.33,10.17,0.01,0.03,-0.03,1721028201737
-0.74,-0.35,10.18,0.01,0.03,-0.03,1721028201740
-0.77,-0.35,10.17,0.01,0.03,-0.03,1721028201743
-0.78,-0.33,10.22,0.01,0.03,-0.03,1721028201753
-0.77,-0.34,10.23,0.01,0.03,-0.03,1721028201756
-0.77,-0.34,10.23,0.01,0.03,-0.03,1721028201759
-0.76,-0.34,10.24,0.01,0.03,-0.03,1721028201762
-0.77,-0.34,10.24,0.01,0.03,-0.03,1721028201765
-0.76,-0.33,10.19,0.01,0.03,-0.03,1721028201775
-0.76,-0.34,10.20,0.01,0.03,-0.03,1721028201778
-0.74,-0.35,10.19,0.01,0.03,-0.03,1721028201781
-0.75,-0.35,10.18,0.01,0.03,-0.03,1721028201784
-0.75,-0.34,10.18,0.01,0.03,-0.03,1721028201787
-0.76,-0.33,10.17,0.01,0.03,-0.03,1721028201797
-0.75,-0.34,10.19,0.01,0.03,-0.03,1721028201800
-0.74,-0.35,10.19,0.01,0.03,-0.03,1721028201803
-0.75,-0.35,10.18,0.01,0.03,-0.03,1721028201806
-0.74,-0.35,10.18,0.01,0.03,-0.03,1721028201809
-0.74,-0.35,10.22,0.01,0.03,-0.03,1721028201819
-0.76,-0.34,10.22,0.01,0.03,-0.03,1721028201822
-0.76,-0.34,10.20,0.01,0.03,-0.03,1721028201825
-0.79,-0.34,10.20,0.01,0.03,-0.03,1721028201828
-0.79,-0.34,10.21,0.01,0.03,-0.03,1721028201831
-0.77,-0.37,10.15,0.01,0.03,-0.03,1721028201841
-0.79,-0.37,10.20,0.01,0.03,-0.03,1721028201844
-0.80,-0.37,10.24,0.01,0.03,-0.03,1721028201847
-0.79,-0.39,10.22,0.01,0.03,-0.03,1721028201850
-0.79,-0.38,10.21,0.01,0.03,-0.03,1721028201853
-0.80,-0.36,10.20,0.01,0.03,-0.02,1721028201863
-0.79,-0.34,10.20,0.01,0.03,-0.02,1721028201866
-0.79,-0.33,10.19,0.01,0.03,-0.02,1721028201869
-0.78,-0.35,10.18,0.01,0.03,-0.02,1721028201872
-0.79,-0.35,10.18,0.01,0.03,-0.02,1721028201875
-0.72,-0.37,10.21,0.01,0.03,-0.02,1721028201885
-0.74,-0.36,10.18,0.01,0.03,-0.02,1721028201888
-0.75,-0.34,10.18,0.01,0.03,-0.02,1721028201891
-0.73,-0.36,10.18,0.01,0.03,-0.02,1721028201894
-0.72,-0.37,10.20,0.01,0.03,-0.02,1721028201897
-0.73,-0.32,10.19,0.01,0.03,-0.02,1721028201907
-0.75,-0.33,10.21,0.01,0.03,-0.02,1721028201910
-0.72,-0.33,10.22,0.01,0.03,-0.02,1721028201913
-0.72,-0.33,10.23,0.01,0.03,-0.02,1721028201916
-0.71,-0.34,10.23,0.01,0.03,-0.02,1721028201919
-0.72,-0.31,10.22,0.01,0.03,-0.03,1721028201929
-0.73,-0.31,10.23,0.01,0.04,-0.03,1721028201932
-0.74,-0.31,10.21,0.01,0.04,-0.03,1721028201935
-0.75,-0.33,10.24,0.01,0.04,-0.03,1721028201938
-0.75,-0.33,10.23,0.01,0.03,-0.03,1721028201941
-0.80,-0.34,10.20,0.01,0.04,-0.03,1721028201951
-0.82,-0.33,10.23,0.01,0.04,-0.03,1721028201954
-0.82,-0.34,10.22,0.01,0.04,-0.03,1721028201957
-0.81,-0.35,10.23,0.01,0.04,-0.03,1721028201960
-0.85,-0.35,10.22,0.01,0.04,-0.03,1721028201963
-0.86,-0.37,10.18,0.01,0.03,-0.03,1721028201973
-0.86,-0.36,10.23,0.01,0.03,-0.03,1721028201976
-0.88,-0.34,10.20,0.01,0.03,-0.03,1721028201979
-0.87,-0.33,10.18,0.01,0.03,-0.03,1721028201982
-0.89,-0.36,10.16,0.01,0.03,-0.03,1721028201985
-0.88,-0.36,10.19,0.01,0.03,-0.03,1721028201995
-0.86,-0.36,10.17,0.01,0.03,-0.03,1721028201998
-0.87,-0.38,10.20,0.01,0.03,-0.03,1721028202001
-0.88,-0.37,10.23,0.01,0.03,-0.03,1721028202004
-0.87,-0.37,10.24,0.01,0.03,-0.03,1721028202007
-0.88,-0.35,10.20,0.01,0.03,-0.03,1721028202017
-0.88,-0.37,10.20,0.01,0.03,-0.03,1721028202020
-0.88,-0.38,10.22,0.01,0.03,-0.03,1721028202023
-0.87,-0.39,10.18,0.01,0.03,-0.03,1721028202026
-0.87,-0.39,10.20,0.01,0.03,-0.03,1721028202029
-0.90,-0.38,10.17,0.01,0.03,-0.03,1721028202039
-0.90,-0.39,10.18,0.01,0.03,-0.03,1721028202042
-0.89,-0.39,10.20,0.01,0.03,-0.03,1721028202045
-0.86,-0.38,10.22,0.01,0.03,-0.03,1721028202048
-0.86,-0.39,10.20,0.01,0.03,-0.02,1721028202051
-0.81,-0.42,10.23,0.01,0.02,-0.02,1721028202061
-0.81,-0.39,10.25,0.01,0.02,-0.02,1721028202064
-0.84,-0.38,10.25,0.01,0.02,-0.02,1721028202067
-0.82,-0.38,10.19,0.01,0.02,-0.02,1721028202070
-0.82,-0.39,10.18,0.01,0.02,-0.02,1721028202073
-0.81,-0.36,10.19,0.01,0.02,-0.03,1721028202083
-0.80,-0.37,10.17,0.01,0.02,-0.03,1721028202086
-0.80,-0.38,10.19,0.01,0.02,-0.03,1721028202089
-0.82,-0.36,10.22,0.01,0.03,-0.03,1721028202092
-0.80,-0.37,10.22,0.01,0.03,-0.03,1721028202095
-0.81,-0.37,10.19,0.01,0.03,-0.03,1721028202105
-0.79,-0.36,10.19,0.01,0.03,-0.03,1721028202108
-0.80,-0.36,10.16,0.01,0.03,-0.03,1721028202111
-0.79,-0.36,10.16,0.01,0.03,-0.03,1721028202114
-0.83,-0.38,10.20,0.01,0.03,-0.04,1721028202117
-0.87,-0.39,10.19,0.01,0.03,-0.03,1721028202127
-0.87,-0.37,10.19,0.01,0.03,-0.03,1721028202130
-0.89,-0.37,10.18,0.01,0.03,-0.03,1721028202133
-0.89,-0.38,10.21,0.01,0.03,-0.03,1721028202136
-0.89,-0.37,10.22,0.01,0.03,-0.03,1721028202139
-0.89,-0.35,10.19,0.01,0.02,-0.03,1721028202149
-0.89,-0.36,10.19,0.01,0.02,-0.03,1721028202152
-0.90,-0.35,10.25,0.01,0.01,-0.03,1721028202155
-0.88,-0.36,10.19,0.01,0.01,-0.03,1721028202158
-0.87,-0.36,10.19,0.01,0.02,-0.03,1721028202161
-0.88,-0.35,10.23,0.01,0.02,-0.03,1721028202171
-0.88,-0.34,10.25,0.01,0.02,-0.03,1721028202174
-0.88,-0.32,10.21,0.01,0.03,-0.03,1721028202177
-0.91,-0.32,10.18,0.01,0.03,-0.03,1721028202180
-0.91,-0.32,10.22,0.01,0.03,-0.03,1721028202183
-0.98,-0.32,10.21,0.01,0.02,-0.04,1721028202193
-0.96,-0.31,10.24,0.01,0.02,-0.04,1721028202196
-0.98,-0.33,10.22,0.01,0.02,-0.03,1721028202199
-1.00,-0.35,10.21,0.01,0.02,-0.03,1721028202202
-1.02,-0.36,10.22,0.01,0.01,-0.03,1721028202205
-0.95,-0.34,10.22,0.01,0.01,-0.03,1721028202215
-0.95,-0.33,10.23,0.01,0.01,-0.03,1721028202218
-0.95,-0.34,10.21,0.01,0.01,-0.03,1721028202221
-0.95,-0.36,10.21,0.01,0.01,-0.03,1721028202224
-0.93,-0.35,10.20,0.01,0.01,-0.03,1721028202227
-0.91,-0.37,10.25,0.02,0.01,-0.03,1721028202237
-0.88,-0.36,10.22,0.02,0.01,-0.03,1721028202240
-0.91,-0.34,10.22,0.02,0.01,-0.03,1721028202243
-0.91,-0.34,10.26,0.02,0.01,-0.03,1721028202246
-0.91,-0.36,10.18,0.02,0.01,-0.03,1721028202249
-0.99,-0.37,10.17,0.02,0.01,-0.04,1721028202259
-0.99,-0.40,10.19,0.02,0.01,-0.04,1721028202262
-1.01,-0.40,10.18,0.02,0.01,-0.03,1721028202265
-1.01,-0.38,10.20,0.02,0.01,-0.03,1721028202268
-1.02,-0.39,10.17,0.02,0.01,-0.03,1721028202271
-1.01,-0.40,10.14,0.02,0.00,-0.03,1721028202281
-1.00,-0.37,10.19,0.02,-0.00,-0.02,1721028202284
-0.96,-0.38,10.17,0.02,-0.00,-0.03,1721028202287
-0.95,-0.38,10.14,0.02,-0.01,-0.02,1721028202290
-0.95,-0.37,10.14,0.01,-0.01,-0.03,1721028202293
-0.92,-0.39,10.21,0.01,-0.01,-0.03,1721028202303
-0.91,-0.41,10.24,0.02,-0.01,-0.03,1721028202306
-0.92,-0.40,10.25,0.02,-0.00,-0.02,1721028202309
-0.93,-0.40,10.24,0.02,-0.00,-0.02,1721028202312
-0.95,-0.42,10.24,0.02,-0.00,-0.02,1721028202315
-0.91,-0.40,10.17,0.02,-0.00,-0.02,1721028202325
-0.92,-0.39,10.18,0.02,-0.01,-0.02,1721028202328
-0.91,-0.41,10.18,0.02,-0.01,-0.02,1721028202331
-0.88,-0.41,10.19,0.02,-0.01,-0.02,1721028202334
-0.89,-0.42,10.22,0.02,-0.01,-0.02,1721028202337
-0.88,-0.42,10.21,0.02,-0.02,-0.02,1721028202347
-0.87,-0.42,10.17,0.02,-0.02,-0.02,1721028202350
-0.87,-0.40,10.18,0.02,-0.02,-0.02,1721028202353
-0.85,-0.40,10.17,0.02,-0.01,-0.02,1721028202356
-0.85,-0.38,10.16,0.02,-0.01,-0.02,1721028202359
-0.82,-0.40,10.14,0.01,-0.01,-0.02,1721028202369
-0.83,-0.42,10.14,0.01,-0.02,-0.02,1721028202372
-0.81,-0.40,10.17,0.01,-0.02,-0.02,1721028202375
-0.80,-0.38,10.21,0.01,-0.02,-0.02,1721028202378
-0.80,-0.38,10.22,0.01,-0.02,-0.02,1721028202381
-0.80,-0.39,10.24,0.02,-0.02,-0.02,1721028202391
-0.80,-0.40,10.23,0.02,-0.01,-0.02,1721028202394
-0.79,-0.40,10.24,0.02,-0.01,-0.02,1721028202397
-0.82,-0.41,10.26,0.02,-0.01,-0.02,1721028202400
-0.83,-0.41,10.25,0.02,-0.01,-0.02,1721028202403
-0.80,-0.38,10.19,0.02,-0.02,-0.02,1721028202413
-0.80,-0.37,10.20,0.02,-0.02,-0.02,1721028202416
-0.79,-0.39,10.19,0.02,-0.02,-0.02,1721028202419
-0.79,-0.36,10.21,0.02,-0.02,-0.02,1721028202422
-0.77,-0.37,10.20,0.02,-0.02,-0.02,1721028202425
-0.79,-0.38,10.21,0.02,-0.02,-0.02,1721028202435
-0.79,-0.38,10.19,0.02,-0.02,-0.02,1721028202438
-0.79,-0.37,10.19,0.02,-0.02,-0.02,1721028202441
-0.77,-0.38,10.20,0.02,-0.02,-0.02,1721028202444
-0.75,-0.37,10.23,0.02,-0.02,-0.02,1721028202447
-0.78,-0.35,10.22,0.01,-0.02,-0.03,1721028202457
-0.78,-0.35,10.21,0.01,-0.02,-0.03,1721028202460
-0.79,-0.36,10.21,0.01,-0.02,-0.03,1721028202463
-0.80,-0.35,10.19,0.01,-0.02,-0.03,1721028202466
-0.80,-0.36,10.22,0.01,-0.02,-0.03,1721028202469
-0.83,-0.35,10.22,0.01,-0.02,-0.03,1721028202479
-0.84,-0.36,10.25,0.02,-0.02,-0.03,1721028202482
-0.85,-0.36,10.19,0.02,-0.02,-0.03,1721028202485
-0.83,-0.36,10.18,0.02,-0.02,-0.03,1721028202488
-0.83,-0.36,10.21,0.02,-0.02,-0.03,1721028202491
-0.88,-0.34,10.23,0.02,-0.02,-0.02,1721028202501
-0.84,-0.34,10.20,0.02,-0.02,-0.02,1721028202504
-0.85,-0.33,10.21,0.02,-0.02,-0.02,1721028202507
-0.86,-0.32,10.20,0.02,-0.02,-0.02,1721028202510
-0.81,-0.33,10.21,0.01,-0.02,-0.02,1721028202513
-0.84,-0.33,10.18,0.01,-0.02,-0.01,1721028202523
-0.82,-0.33,10.19,0.01,-0.02,-0.01,1721028202526
-0.81,-0.32,10.18,0.01,-0.02,-0.01,1721028202529
-0.79,-0.31,10.20,0.01,-0.02,-0.01,1721028202532
-0.77,-0.32,10.18,0.01,-0.02,-0.01,1721028202535
-0.76,-0.33,10.21,0.01,-0.03,-0.01,1721028202545
-0.74,-0.34,10.23,0.01,-0.02,-0.01,1721028202548
-0.73,-0.34,10.21,0.01,-0.02,-0.01,1721028202551
-0.74,-0.32,10.22,0.01,-0.03,-0.01,1721028202554
-0.73,-0.32,10.25,0.01,-0.02,-0.01,1721028202557
-0.70,-0.30,10.20,0.01,-0.02,-0.01,1721028202567
-0.70,-0.30,10.20,0.01,-0.02,-0.01,1721028202570
-0.74,-0.33,10.24,0.01,-0.02,-0.02,1721028202573
-0.70,-0.31,10.22,0.01,-0.02,-0.01,1721028202576
-0.74,-0.30,10.22,0.01,-0.03,-0.01,1721028202579
-0.69,-0.32,10.16,0.01,-0.03,-0.01,1721028202589
-0.71,-0.32,10.16,0.01,-0.02,-0.01,1721028202592
-0.73,-0.31,10.15,0.01,-0.02,-0.01,1721028202595
-0.73,-0.33,10.17,0.01,-0.02,-0.01,1721028202598
-0.71,-0.34,10.19,0.01,-0.02,-0.01,1721028202601
-0.69,-0.32,10.25,0.01,-0.02,-0.01,1721028202611
-0.71,-0.33,10.25,0.01,-0.02,-0.01,1721028202614
-0.68,-0.38,10.28,0.01,-0.02,-0.01,1721028202617
-0.64,-0.36,10.31,0.01,-0.02,-0.01,1721028202620
-0.64,-0.35,10.29,0.01,-0.02,-0.00,1721028202623
-0.60,-0.34,10.26,0.02,-0.03,-0.01,1721028202633
-0.60,-0.34,10.22,0.02,-0.03,-0.01,1721028202636
-0.61,-0.32,10.20,0.02,-0.03,-0.01,1721028202639
-0.58,-0.31,10.18,0.02,-0.03,-0.01,1721028202642
-0.59,-0.28,10.19,0.02,-0.03,-0.01,1721028202645
-0.59,-0.35,10.19,0.01,-0.02,-0.01,1721028202655
-0.59,-0.36,10.20,0.01,-0.02,-0.01,1721028202658
-0.57,-0.33,10.22,0.01,-0.02,-0.01,1721028202661
-0.58,-0.32,10.29,0.01,-0.02,-0.01,1721028202664
-0.58,-0.30,10.25,0.01,-0.01,-0.01,1721028202667
-0.58,-0.34,10.19,0.01,-0.02,-0.01,1721028202677
-0.56,-0.30,10.19,0.02,-0.02,-0.01,1721028202680
-0.57,-0.29,10.23,0.02,-0.02,-0.01,1721028202683
-0.59,-0.32,10.26,0.01,-0.03,-0.01,1721028202686
-0.57,-0.34,10.27,0.01,-0.03,-0.02,1721028202689
-0.59,-0.34,10.28,0.02,-0.02,-0.02,1721028202699
-0.59,-0.30,10.32,0.02,-0.02,-0.02,1721028202702
-0.59,-0.32,10.30,0.02,-0.01,-0.02,1721028202705
-0.61,-0.34,10.26,0.02,-0.01,-0.02,1721028202708
-0.58,-0.28,10.24,0.02,-0.01,-0.02,1721028202711
-0.60,-0.32,10.16,0.02,-0.01,-0.02,1721028202721
-0.59,-0.26,10.14,0.02,-0.02,-0.02,1721028202724
-0.60,-0.25,10.19,0.01,-0.02,-0.02,1721028202727
-0.61,-0.29,10.20,0.01,-0.02,-0.02,1721028202730
-0.60,-0.28,10.20,0.01,-0.02,-0.02,1721028202733
-0.59,-0.31,10.28,0.02,-0.01,-0.02,1721028202743
-0.61,-0.29,10.27,0.02,-0.01,-0.02,1721028202746
-0.63,-0.28,10.25,0.02,-0.01,-0.02,1721028202749
-0.62,-0.29,10.25,0.02,-0.01,-0.02,1721028202752
-0.64,-0.30,10.23,0.01,-0.01,-0.02,1721028202755
-0.65,-0.30,10.23,0.02,-0.02,-0.01,1721028202765
-0.64,-0.26,10.21,0.02,-0.02,-0.01,1721028202768
-0.63,-0.26,10.26,0.02,-0.02,-0.01,1721028202771
-0.63,-0.27,10.28,0.01,-0.02,-0.01,1721028202774
-0.65,-0.26,10.25,0.02,-0.02,-0.02,1721028202777
-0.67,-0.25,10.15,0.02,-0.01,-0.01,1721028202787
-0.69,-0.24,10.19,0.02,-0.01,-0.01,1721028202790
-0.70,-0.19,10.18,0.02,-0.01,-0.00,1721028202793
-0.70,-0.18,10.13,0.01,-0.01,-0.00,1721028202796
-0.69,-0.24,10.15,0.01,-0.01,-0.01,1721028202799
-0.65,-0.29,10.27,0.01,-0.02,0.00,1721028202809
-0.67,-0.23,10.32,0.01,-0.02,0.01,1721028202812
-0.62,-0.26,10.33,0.01,-0.02,0.00,1721028202815
-0.62,-0.35,10.27,0.01,-0.02,0.00,1721028202818
-0.59,-0.38,10.27,0.02,-0.03,0.01,1721028202821
-0.51,-0.29,10.21,0.02,-0.03,0.00,1721028202831
-0.46,-0.30,10.15,0.02,-0.03,0.00,1721028202834
-0.45,-0.30,10.15,0.02,-0.03,0.00,1721028202837
-0.44,-0.23,10.13,0.02,-0.04,0.00,1721028202840
-0.43,-0.25,10.17,0.02,-0.03,-0.00,1721028202843
-0.40,-0.26,10.19,0.02,-0.02,-0.00,1721028202853
-0.37,-0.25,10.20,0.02,-0.02,-0.00,1721028202856
-0.37,-0.31,10.18,0.02,-0.01,-0.01,1721028202859
-0.36,-0.29,10.16,0.02,-0.01,-0.01,1721028202862
-0.39,-0.28,10.20,0.02,-0.01,-0.01,1721028202865
-0.43,-0.27,10.21,0.02,-0.01,-0.02,1721028202875
-0.45,-0.25,10.21,0.01,-0.01,-0.02,1721028202878
-0.47,-0.34,10.23,0.01,-0.02,-0.02,1721028202881
-0.44,-0.34,10.23,0.01,-0.02,-0.02,1721028202884
-0.45,-0.32,10.28,0.01,-0.02,-0.02,1721028202887
-0.45,-0.35,10.31,0.02,-0.01,-0.01,1721028202897
-0.44,-0.38,10.30,0.02,-0.01,-0.01,1721028202900
-0.43,-0.34,10.28,0.02,-0.01,-0.02,1721028202903
-0.42,-0.28,10.25,0.02,-0.01,-0.02,1721028202906
-0.44,-0.27,10.24,0.02,-0.01,-0.02,1721028202909
-0.42,-0.29,10.19,0.02,-0.02,-0.03,1721028202919
-0.42,-0.28,10.17,0.02,-0.02,-0.03,1721028202922
-0.40,-0.28,10.18,0.02,-0.02,-0.04,1721028202925
-0.42,-0.27,10.13,0.02,-0.02,-0.04,1721028202928
-0.45,-0.27,10.15,0.02,-0.01,-0.04,1721028202931
-0.55,-0.36,10.17,0.02,0.00,-0.05,1721028202941
-0.58,-0.37,10.18,0.02,0.01,-0.05,1721028202944
-0.62,-0.33,10.15,0.02,0.01,-0.05,1721028202947
-0.65,-0.30,10.18,0.02,0.01,-0.05,1721028202950
-0.71,-0.33,10.21,0.02,0.00,-0.05,1721028202953
-0.79,-0.38,10.26,0.02,-0.01,-0.05,1721028202963
-0.83,-0.38,10.26,0.02,-0.02,-0.04,1721028202966
-0.83,-0.38,10.25,0.02,-0.02,-0.04,1721028202969
-0.85,-0.39,10.28,0.02,-0.02,-0.04,1721028202972
-0.83,-0.39,10.27,0.02,-0.02,-0.03,1721028202975
-0.80,-0.40,10.24,0.02,-0.03,-0.03,1721028202985
-0.79,-0.37,10.23,0.02,-0.03,-0.02,1721028202988
-0.78,-0.36,10.21,0.02,-0.04,-0.02,1721028202991
-0.73,-0.34,10.19,0.02,-0.04,-0.02,1721028202994
-0.71,-0.35,10.22,0.02,-0.04,-0.02,1721028202997
-0.65,-0.38,10.20,0.02,-0.04,-0.02,1721028203007
-0.64,-0.39,10.21,0.02,-0.04,-0.02,1721028203010
-0.66,-0.41,10.22,0.02,-0.04,-0.03,1721028203013
-0.64,-0.38,10.21,0.02,-0.04,-0.03,1721028203016
-0.64,-0.36,10.22,0.02,-0.03,-0.03,1721028203019
-0.68,-0.32,10.24,0.02,-0.03,-0.03,1721028203029
-0.68,-0.34,10.23,0.02,-0.03,-0.03,1721028203032
-0.70,-0.36,10.23,0.02,-0.03,-0.03,1721028203035
-0.69,-0.37,10.24,0.02,-0.03,-0.03,1721028203038
-0.69,-0.37,10.23,0.02,-0.03,-0.03,1721028203041
-0.66,-0.38,10.24,0.02,-0.04,-0.02,1721028203051
-0.66,-0.37,10.24,0.02,-0.05,-0.02,1721028203054
-0.64,-0.38,10.17,0.02,-0.05,-0.02,1721028203057
-0.63,-0.39,10.19,0.02,-0.05,-0.02,1721028203060
-0.62,-0.35,10.22,0.02,-0.05,-0.01,1721028203063
-0.55,-0.40,10.27,0.02,-0.05,-0.02,1721028203073
-0.53,-0.38,10.26,0.02,-0.05,-0.02,1721028203076
-0.52,-0.36,10.29,0.02,-0.05,-0.02,1721028203079
-0.53,-0.34,10.29,0.02,-0.05,-0.02,1721028203082
-0.56,-0.32,10.28,0.02,-0.05,-0.03,1721028203085
-0.57,-0.36,10.19,0.02,-0.05,-0.03,1721028203095
-0.57,-0.38,10.21,0.02,-0.05,-0.03,1721028203098
-0.56,-0.39,10.23,0.01,-0.05,-0.03,1721028203101
-0.57,-0.37,10.29,0.02,-0.05,-0.03,1721028203104
-0.59,-0.37,10.28,0.02,-0.05,-0.03,1721028203107
-0.65,-0.41,10.28,0.02,-0.04,-0.03,1721028203117
-0.66,-0.40,10.23,0.02,-0.05,-0.02,1721028203120
-0.63,-0.37,10.20,0.02,-0.05,-0.02,1721028203123
-0.64,-0.38,10.21,0.02,-0.05,-0.02,1721028203126
-0.62,-0.38,10.18,0.02,-0.05,-0.02,1721028203129
-0.59,-0.37,10.26,0.02,-0.06,-0.01,1721028203139
-0.57,-0.38,10.23,0.02,-0.06,-0.01,1721028203142
-0.53,-0.38,10.24,0.02,-0.06,-0.01,1721028203145
-0.53,-0.37,10.29,0.02,-0.06,-0.01,1721028203148
-0.51,-0.36,10.30,0.02,-0.06,-0.01,1721028203151
-0.45,-0.35,10.22,0.02,-0.06,-0.01,1721028203161
-0.45,-0.35,10.18,0.02,-0.06,-0.01,1721028203164
-0.43,-0.37,10.16,0.02,-0.06,-0.01,1721028203167
-0.39,-0.37,10.18,0.02,-0.06,-0.01,1721028203170
-0.38,-0.36,10.21,0.02,-0.07,-0.00,1721028203173
-0.36,-0.42,10.31,0.02,-0.06,-0.01,1721028203183
-0.33,-0.38,10.29,0.02,-0.06,-0.01,1721028203186
-0.34,-0.37,10.25,0.02,-0.06,-0.01,1721028203189
-0.35,-0.35,10.29,0.03,-0.06,-0.01,1721028203192
-0.32,-0.37,10.23,0.03,-0.06,-0.01,1721028203195
-0.26,-0.36,10.33,0.01,-0.06,-0.00,1721028203205
-0.25,-0.39,10.31,0.01,-0.06,-0.00,1721028203208
-0.25,-0.41,10.30,0.02,-0.06,-0.01,1721028203211
-0.22,-0.40,10.26,0.02,-0.06,-0.01,1721028203214
-0.21,-0.35,10.25,0.03,-0.06,-0.01,1721028203217
-0.17,-0.33,10.18,0.02,-0.07,-0.02,1721028203227
-0.16,-0.34,10.17,0.02,-0.07,-0.02,1721028203230
-0.13,-0.34,10.15,0.02,-0.07,-0.02,1721028203233
-0.15,-0.36,10.17,0.02,-0.06,-0.02,1721028203236
-0.13,-0.33,10.22,0.02,-0.06,-0.02,1721028203239
-0.13,-0.36,10.27,0.02,-0.04,-0.02,1721028203249
-0.13,-0.37,10.27,0.02,-0.04,-0.02,1721028203252
-0.13,-0.41,10.26,0.02,-0.04,-0.02,1721028203255
-0.14,-0.37,10.27,0.02,-0.04,-0.02,1721028203258
-0.16,-0.30,10.26,0.02,-0.04,-0.02,1721028203261
-0.15,-0.40,10.21,0.01,-0.05,-0.03,1721028203271
-0.16,-0.42,10.24,0.01,-0.05,-0.03,1721028203274
-0.16,-0.39,10.31,0.02,-0.05,-0.03,1721028203277
-0.17,-0.37,10.36,0.02,-0.05,-0.03,1721028203280
-0.14,-0.35,10.35,0.02,-0.05,-0.03,1721028203283
-0.18,-0.37,10.27,0.02,-0.04,-0.03,1721028203293
-0.19,-0.39,10.21,0.02,-0.04,-0.03,1721028203296
-0.23,-0.36,10.20,0.02,-0.04,-0.04,1721028203299
-0.26,-0.26,10.17,0.02,-0.03,-0.04,1721028203302
-0.31,-0.23,10.14,0.02,-0.03,-0.04,1721028203305
-1.02,-0.58,10.48,-0.01,0.10,-0.05,1721028203315
-0.99,-0.83,10.40,-0.04,0.16,0.02,1721028203318
-0.94,-0.90,10.31,-0.04,0.18,0.14,1721028203321
-0.88,-0.89,10.41,-0.02,0.18,0.26,1721028203324
-0.81,-0.55,10.49,-0.01,0.14,0.31,1721028203327
0.27,-0.45,9.71,0.04,-0.16,0.14,1721028203337
0.64,-0.34,9.70,0.04,-0.30,0.13,1721028203340
0.91,0.07,10.03,0.03,-0.39,0.12,1721028203343
1.13,0.35,10.43,0.01,-0.43,0.08,1721028203346
1.37,0.16,10.60,-0.01,-0.41,0.02,1721028203349
1.60,-0.34,10.80,0.03,-0.11,-0.09,1721028203359
1.34,0.08,10.86,0.05,0.03,-0.13,1721028203362
1.06,0.10,10.68,0.05,0.18,-0.18,1721028203365
0.75,-0.20,10.39,0.04,0.31,-0.21,1721028203368
0.32,-0.35,10.07,0.03,0.40,-0.21,1721028203371
-1.21,-0.17,9.64,0.01,0.33,-0.17,1721028203381
-1.36,-0.37,9.57,-0.00,0.22,-0.14,1721028203384
-1.49,-0.45,9.91,-0.02,0.08,-0.09,1721028203387
-1.74,-0.15,10.28,-0.03,-0.06,-0.06,1721028203390
-1.88,0.02,10.36,-0.01,-0.17,-0.08,1721028203393
-1.23,-0.99,10.25,0.06,-0.29,-0.07,1721028203403
-1.00,-0.64,10.41,0.07,-0.26,0.00,1721028203406
-0.74,-0.24,10.56,0.05,-0.21,0.07,1721028203409
-0.49,-0.11,10.49,0.01,-0.14,0.12,1721028203412
-0.25,-0.32,10.39,-0.02,-0.06,0.15,1721028203415
0.49,-0.45,10.19,0.01,0.04,0.19,1721028203425
0.60,0.01,10.51,0.02,0.03,0.16,1721028203428
0.66,0.43,10.44,0.01,0.02,0.11,1721028203431
0.72,0.34,10.35,0.01,-0.01,0.05,1721028203434
0.75,-0.10,10.28,0.01,-0.04,-0.01,1721028203437
0.56,-0.21,10.23,0.05,-0.11,-0.12,1721028203447
0.46,-0.07,10.21,0.04,-0.10,-0.13,1721028203450
0.34,-0.12,10.16,0.03,-0.06,-0.13,1721028203453
0.25,-0.34,10.23,0.01,-0.02,-0.11,1721028203456
0.11,-0.49,10.24,-0.00,0.02,-0.09,1721028203459
-0.46,-0.39,10.42,0.01,0.17,-0.09,1721028203469
-0.63,-0.28,10.43,0.01,0.18,-0.09,1721028203472
-0.79,-0.30,10.43,0.01,0.16,-0.08,1721028203475
-0.93,-0.36,10.38,0.01,0.11,-0.06,1721028203478
-1.03,-0.39,10.23,0.01,0.06,-0.05,1721028203481
-0.56,-0.40,10.12,0.04,-0.21,0.02,1721028203496
-0.33,-0.17,10.30,0.02,-0.21,0.03,1721028203499
-0.10,-0.10,10.32,0.01,-0.19,0.03,1721028203502
0.09,-0.31,10.35,-0.00,-0.15,0.03,1721028203505
0.23,-0.51,10.32,-0.00,-0.10,0.03,1721028203508
0.42,-0.20,10.38,0.03,0.06,0.01,1721028203518
0.44,-0.06,10.32,0.02,0.08,0.01,1721028203521
0.41,-0.09,10.27,0.01,0.09,-0.00,1721028203524
0.34,-0.21,10.16,0.01,0.08,-0.01,1721028203527
0.24,-0.25,10.11,0.00,0.06,-0.03,1721028203530
-0.08,-0.20,10.38,0.02,-0.02,-0.11,1721028203540
-0.21,-0.18,10.43,0.02,-0.03,-0.13,1721028203543
-0.36,-0.28,10.49,0.02,-0.03,-0.14,1721028203546
-0.49,-0.45,10.49,0.02,-0.01,-0.14,1721028203549
-0.61,-0.55,10.40,0.03,0.00,-0.12,1721028203552
-0.88,-0.42,10.21,0.03,0.04,-0.04,1721028203562
-0.91,-0.40,10.10,0.02,0.04,-0.01,1721028203565
-0.90,-0.37,10.05,0.01,0.02,0.00,1721028203568
-0.83,-0.39,10.04,0.00,-0.00,0.02,1721028203571
-0.77,-0.35,10.06,0.00,-0.03,0.02,1721028203574
-0.43,-0.29,10.29,0.02,-0.11,0.00,1721028203584
-0.30,-0.23,10.31,0.02,-0.12,-0.00,1721028203587
-0.20,-0.22,10.37,0.02,-0.12,-0.00,1721028203590
-0.11,-0.26,10.39,0.02,-0.10,0.00,1721028203593
-0.04,-0.33,10.32,0.02,-0.08,0.00,1721028203596
0.10,-0.25,10.23,0.02,0.00,-0.00,1721028203606
0.08,-0.20,10.30,0.01,0.02,-0.01,1721028203609
0.01,-0.21,10.34,0.01,0.04,-0.03,1721028203612
-0.09,-0.29,10.32,0.00,0.05,-0.04,1721028203615
-0.21,-0.34,10.32,0.01,0.04,-0.06,1721028203618
-0.59,-0.34,10.39,0.03,-0.00,-0.07,1721028203628
-0.68,-0.35,10.32,0.03,-0.02,-0.06,1721028203631
-0.72,-0.37,10.22,0.03,-0.04,-0.05,1721028203634
-0.75,-0.36,10.15,0.03,-0.06,-0.04,1721028203637
-0.75,-0.37,10.07,0.03,-0.07,-0.03,1721028203640
-0.55,-0.32,10.16,0.02,-0.08,0.01,1721028203650
-0.44,-0.31,10.14,0.01,-0.08,0.02,1721028203653
-0.32,-0.34,10.18,0.01,-0.07,0.03,1721028203656
-0.23,-0.33,10.27,0.01,-0.06,0.03,1721028203659
-0.15,-0.31,10.28,0.01,-0.06,0.03,1721028203662
0.12,-0.25,10.26,0.02,-0.05,0.02,1721028203672
0.19,-0.22,10.26,0.02,-0.06,0.01,1721028203675
0.21,-0.20,10.28,0.02,-0.06,0.00,1721028203678
0.25,-0.22,10.27,0.02,-0.06,-0.01,1721028203681
0.24,-0.25,10.29,0.02,-0.05,-0.02,1721028203684
0.08,-0.31,10.35,0.02,-0.02,-0.06,1721028203694
0.00,-0.31,10.37,0.02,-0.01,-0.07,1721028203697
-0.12,-0.35,10.37,0.02,0.00,-0.07,1721028203700
-0.20,-0.37,10.35,0.02,0.01,-0.06,1721028203703
-0.25,-0.37,10.33,0.02,0.01,-0.06,1721028203706
-0.52,-0.30,10.10,0.03,-0.03,-0.05,1721028203716
-0.53,-0.26,10.05,0.03,-0.04,-0.04,1721028203719
-0.52,-0.29,10.04,0.02,-0.06,-0.04,1721028203722
-0.49,-0.31,10.02,0.02,-0.08,-0.04,1721028203725
-0.49,-0.29,10.06,0.02,-0.09,-0.04,1721028203728
-0.39,-0.34,10.25,0.01,-0.08,-0.02,1721028203738
-0.31,-0.32,10.31,0.00,-0.07,-0.01,1721028203741
-0.24,-0.30,10.39,0.00,-0.06,0.00,1721028203744
-0.22,-0.30,10.40,0.01,-0.04,0.01,1721028203747
-0.18,-0.31,10.41,0.01,-0.03,0.01,1721028203750
-0.15,-0.22,10.16,0.03,-0.04,-0.02,1721028203760
-0.15,-0.20,10.16,0.02,-0.05,-0.02,1721028203763
-0.19,-0.21,10.18,0.02,-0.07,-0.03,1721028203766
-0.20,-0.25,10.20,0.01,-0.07,-0.04,1721028203769
-0.21,-0.34,10.27,0.01,-0.08,-0.04,1721028203772
-0.18,-0.36,10.52,0.02,-0.06,-0.02,1721028203782
-0.15,-0.34,10.50,0.03,-0.05,-0.01,1721028203785
-0.17,-0.33,10.39,0.03,-0.04,-0.00,1721028203788
-0.16,-0.33,10.35,0.03,-0.04,-0.00,1721028203791
-0.16,-0.34,10.27,0.03,-0.04,0.00,1721028203794
-0.07,-0.23,10.05,0.02,-0.08,0.00,1721028203804
0.00,-0.23,10.05,0.01,-0.09,0.00,1721028203807
0.10,-0.23,10.11,0.01,-0.10,0.00,1721028203810
0.11,-0.27,10.16,0.01,-0.10,0.00,1721028203813
0.20,-0.33,10.29,0.01,-0.10,-0.00,1721028203816
0.39,-0.26,10.35,0.02,-0.06,0.00,1721028203826
0.41,-0.23,10.23,0.02,-0.05,-0.00,1721028203829
0.44,-0.26,10.19,0.02,-0.04,-0.01,1721028203832
0.45,-0.25,10.21,0.02,-0.04,-0.01,1721028203835
0.42,-0.23,10.18,0.02,-0.03,-0.02,1721028203838
0.38,-0.22,10.15,0.01,-0.03,-0.02,1721028203841
0.30,-0.32,10.39,0.01,-0.04,-0.04,1721028203851
0.28,-0.33,10.36,0.01,-0.04,-0.05,1721028203854
0.26,-0.31,10.35,0.01,-0.04,-0.05,1721028203857
0.22,-0.35,10.41,0.02,-0.04,-0.05,1721028203860
0.20,-0.35,10.41,0.02,-0.04,-0.04,1721028203863
0.15,-0.35,10.25,0.03,-0.03,-0.03,1721028203873
0.14,-0.34,10.20,0.02,-0.03,-0.03,1721028203876
0.16,-0.32,10.17,0.02,-0.03,-0.02,1721028203879
0.16,-0.30,10.18,0.02,-0.04,-0.02,1721028203882
0.17,-0.28,10.17,0.01,-0.04,-0.02,1721028203885
0.35,-0.22,10.24,0.01,-0.05,-0.01,1721028203895
0.36,-0.24,10.26,0.01,-0.04,-0.01,1721028203898
0.38,-0.25,10.29,0.01,-0.04,-0.01,1721028203901
0.44,-0.28,10.23,0.01,-0.04,-0.01,1721028203904
0.49,-0.27,10.23,0.01,-0.04,-0.02,1721028203907
0.52,-0.23,10.30,0.01,-0.02,-0.02,1721028203917
0.51,-0.20,10.31,0.01,-0.01,-0.02,1721028203920
0.48,-0.27,10.29,0.01,-0.01,-0.03,1721028203923
0.46,-0.27,10.31,0.01,-0.01,-0.03,1721028203926
0.43,-0.26,10.34,0.01,-0.01,-0.03,1721028203929
0.32,-0.30,10.30,0.01,-0.01,-0.04,1721028203939
0.29,-0.31,10.31,0.02,-0.00,-0.04,1721028203942
0.26,-0.33,10.30,0.02,-0.01,-0.04,1721028203945
0.23,-0.34,10.33,0.02,-0.01,-0.04,1721028203948
0.20,-0.32,10.32,0.02,-0.01,-0.04,1721028203951
0.12,-0.28,10.28,0.02,-0.01,-0.02,1721028203961
0.15,-0.29,10.27,0.02,-0.01,-0.02,1721028203964
0.16,-0.28,10.30,0.02,-0.01,-0.02,1721028203967
0.16,-0.27,10.32,0.02,-0.01,-0.02,1721028203970
0.17,-0.27,10.31,0.02,-0.01,-0.02,1721028203973
0.19,-0.28,10.32,0.02,-0.01,-0.02,1721028203983
0.18,-0.29,10.32,0.02,-0.02,-0.02,1721028203986
0.19,-0.27,10.30,0.02,-0.02,-0.02,1721028203989
0.22,-0.26,10.30,0.02,-0.01,-0.02,1721028203992
0.23,-0.30,10.28,0.02,-0.01,-0.02,1721028203995
0.28,-0.34,10.24,0.02,-0.01,-0.01,1721028204005
0.26,-0.36,10.27,0.02,-0.01,-0.01,1721028204008
0.31,-0.36,10.31,0.02,-0.01,-0.01,1721028204011
0.33,-0.33,10.36,0.02,-0.00,-0.01,1721028204014
0.32,-0.30,10.42,0.02,-0.00,-0.02,1721028204017
0.36,-0.34,10.42,0.03,0.00,-0.02,1721028204027
0.34,-0.32,10.39,0.03,0.00,-0.03,1721028204030
0.35,-0.33,10.34,0.03,0.00,-0.03,1721028204033
0.38,-0.31,10.30,0.04,-0.00,-0.03,1721028204036
0.41,-0.32,10.26,0.04,-0.00,-0.03,1721028204039
0.35,-0.31,10.28,0.04,-0.01,-0.05,1721028204049
0.33,-0.30,10.31,0.04,-0.01,-0.05,1721028204052
0.33,-0.34,10.28,0.04,-0.00,-0.06,1721028204055
0.30,-0.36,10.28,0.04,0.01,-0.06,1721028204058
0.24,-0.35,10.22,0.04,0.01,-0.06,1721028204061
0.12,-0.36,10.16,0.03,0.03,-0.05,1721028204071
0.11,-0.39,10.28,0.02,0.04,-0.05,1721028204074
0.07,-0.39,10.29,0.02,0.04,-0.05,1721028204077
0.04,-0.40,10.29,0.02,0.04,-0.05,1721028204080
0.02,-0.44,10.35,0.02,0.04,-0.04,1721028204083
-0.03,-0.42,10.20,0.03,0.02,-0.04,1721028204093
-0.01,-0.38,10.15,0.03,0.01,-0.03,1721028204096
0.01,-0.35,10.17,0.03,0.00,-0.03,1721028204099
0.01,-0.35,10.18,0.03,-0.00,-0.03,1721028204102
0.05,-0.40,10.14,0.02,-0.01,-0.03,1721028204105
0.09,-0.38,10.11,0.03,0.00,-0.04,1721028204115
0.10,-0.36,10.15,0.03,0.01,-0.04,1721028204118
0.09,-0.36,10.18,0.02,0.02,-0.04,1721028204121
0.04,-0.38,10.14,0.02,0.03,-0.05,1721028204124
0.01,-0.45,10.13,0.02,0.03,-0.05,1721028204127
-0.10,-0.48,9.73,0.02,0.03,-0.04,1721028204137
-0.07,-0.34,9.98,-0.02,0.03,-0.03,1721028204140
-0.12,-0.03,10.22,-0.05,0.03,-0.02,1721028204143
-0.11,-0.11,10.49,-0.06,0.03,-0.02,1721028204146
-0.18,-0.45,10.75,-0.05,0.04,-0.02,1721028204149
-0.15,-0.64,10.70,-0.03,0.04,-0.02,1721028204152
-0.10,-0.26,10.19,0.03,0.01,-0.00,1721028204162
-0.06,0.08,10.02,0.01,0.00,0.00,1721028204165
-0.02,0.06,10.06,-0.02,-0.01,0.00,1721028204168
0.03,-0.26,9.98,-0.03,-0.02,0.01,1721028204171
0.04,-0.45,9.95,-0.04,-0.03,0.01,1721028204174
0.29,-0.12,10.33,-0.00,-0.02,-0.00,1721028204184
0.34,0.02,10.29,-0.01,0.00,-0.01,1721028204187
0.36,-0.08,10.31,-0.02,0.02,-0.01,1721028204190
0.34,-0.29,10.28,-0.03,0.04,-0.00,1721028204193
0.28,-0.37,10.22,-0.03,0.05,-0.00,1721028204196
0.28,-0.15,10.48,-0.00,0.05,-0.01,1721028204206
0.28,-0.07,10.57,-0.01,0.04,-0.00,1721028204209
0.28,-0.13,10.68,-0.01,0.03,-0.00,1721028204212
0.27,-0.24,10.59,-0.01,0.02,-0.01,1721028204215
0.24,-0.36,10.50,0.01,0.00,-0.01,1721028204218
0.36,-0.06,10.23,0.04,-0.02,-0.03,1721028204228
0.34,-0.06,10.19,0.03,-0.02,-0.03,1721028204231
0.34,-0.18,10.15,0.00,-0.02,-0.03,1721028204234
0.34,-0.30,10.16,-0.01,-0.00,-0.02,1721028204237
0.35,-0.35,10.21,-0.01,0.02,-0.02,1721028204240
0.43,-0.11,10.56,0.01,0.07,-0.01,1721028204250
0.39,-0.11,10.55,0.02,0.07,-0.01,1721028204253
0.34,-0.22,10.47,0.02,0.07,-0.01,1721028204256
0.31,-0.27,10.25,0.03,0.06,-0.02,1721028204259
0.29,-0.27,10.08,0.04,0.04,-0.03,1721028204262
0.32,-0.01,9.91,0.01,-0.02,-0.04,1721028204272
0.34,-0.07,9.96,-0.00,-0.03,-0.04,1721028204275
0.36,-0.25,10.11,-0.01,-0.02,-0.04,1721028204278
0.41,-0.37,10.18,-0.02,-0.00,-0.03,1721028204281
0.45,-0.38,10.31,-0.01,0.02,-0.02,1721028204284
0.45,-0.12,10.54,0.01,0.10,-0.02,1721028204294
0.41,-0.22,10.39,0.02,0.11,-0.02,1721028204297
0.40,-0.29,10.19,0.03,0.10,-0.02,1721028204300
0.34,-0.24,10.10,0.03,0.09,-0.03,1721028204303
0.30,-0.16,10.10,0.02,0.07,-0.05,1721028204306
0.28,-0.25,10.23,-0.00,0.00,-0.06,1721028204316
0.24,-0.32,10.36,-0.00,0.00,-0.06,1721028204319
0.22,-0.31,10.43,0.00,0.01,-0.06,1721028204322
0.20,-0.30,10.52,0.01,0.03,-0.06,1721028204325
0.16,-0.26,10.54,0.02,0.05,-0.05,1721028204328
0.03,-0.21,10.20,0.03,0.10,-0.04,1721028204338
-0.01,-0.22,10.03,0.02,0.10,-0.03,1721028204341
-0.01,-0.16,10.06,0.02,0.09,-0.03,1721028204344
-0.02,-0.15,10.07,0.01,0.07,-0.03,1721028204347
0.00,-0.11,10.20,0.01,0.05,-0.03,1721028204350
0.30,0.05,11.20,0.04,-0.03,-0.04,1721028204360
0.27,-0.02,11.21,0.09,-0.03,-0.07,1721028204363
0.26,-0.19,10.76,0.15,-0.03,-0.10,1721028204366
0.23,-0.32,9.85,0.21,-0.04,-0.13,1721028204369
0.14,-0.34,9.13,0.23,-0.05,-0.14,1721028204372
-0.25,0.20,8.40,-0.07,-0.00,-0.13,1721028204382
-0.27,-0.23,9.28,-0.19,0.05,-0.11,1721028204385
-0.34,-0.80,10.44,-0.25,0.11,-0.08,1721028204388
-0.43,-1.11,11.54,-0.24,0.19,-0.05,1721028204391
-0.51,-1.11,12.11,-0.20,0.23,-0.04,1721028204394
-0.79,0.03,12.43,0.10,0.26,0.03,1721028204404
-0.87,0.23,11.65,0.13,0.17,0.04,1721028204407
-0.87,0.11,10.70,0.15,0.05,0.04,1721028204410
-0.77,-0.02,9.60,0.16,-0.08,0.02,1721028204413
-0.67,-0.10,8.91,0.15,-0.16,0.01,1721028204416
0.21,0.22,8.96,0.02,-0.36,-0.01,1721028204426
0.45,0.32,9.15,-0.03,-0.30,-0.01,1721028204429
0.75,-0.15,9.64,-0.07,-0.20,-0.00,1721028204432
0.92,-0.60,10.10,-0.09,-0.08,0.03,1721028204435
0.93,-0.68,10.28,-0.08,0.01,0.05,1721028204438
0.99,-0.05,10.65,0.02,0.39,0.07,1721028204448
0.85,0.01,10.38,0.03,0.40,0.06,1721028204451
0.68,-0.12,10.17,0.02,0.36,0.03,1721028204454
0.54,-0.10,9.96,0.01,0.30,0.01,1721028204457
0.31,-0.05,9.73,0.01,0.20,-0.04,1721028204460
0.10,-0.20,10.58,0.00,-0.17,-0.17,1721028204470
0.10,-0.19,10.98,-0.00,-0.18,-0.17,1721028204473
0.08,-0.34,11.23,-0.01,-0.16,-0.16,1721028204476
0.07,-0.48,11.25,0.00,-0.12,-0.15,1721028204479
0.06,-0.69,11.18,0.02,-0.04,-0.12,1721028204482
-0.16,-0.21,10.18,0.06,0.23,-0.00,1721028204492
-0.22,-0.10,9.84,0.04,0.25,0.01,1721028204495
-0.27,-0.09,9.59,0.02,0.22,0.02,1721028204498
-0.30,-0.08,9.48,0.00,0.19,0.01,1721028204501
-0.32,-0.07,9.47,-0.02,0.13,-0.00,1721028204504
-0.11,-0.34,10.19,-0.01,-0.12,-0.06,1721028204514
-0.03,-0.24,10.44,0.00,-0.14,-0.06,1721028204517
0.00,-0.21,10.52,0.01,-0.13,-0.06,1721028204520
0.08,-0.29,10.55,0.02,-0.10,-0.06,1721028204523
0.14,-0.44,10.45,0.02,-0.05,-0.04,1721028204526
0.11,-0.30,10.06,0.02,0.14,-0.00,1721028204536
0.10,-0.20,10.06,0.00,0.17,0.00,1721028204539
0.05,-0.20,10.07,-0.01,0.18,-0.00,1721028204542
0.02,-0.23,10.17,-0.02,0.17,-0.00,1721028204545
0.00,-0.28,10.29,-0.03,0.15,-0.01,1721028204548
-0.11,-0.26,10.74,0.02,0.00,-0.05,1721028204558
-0.12,-0.21,10.75,0.03,-0.02,-0.05,1721028204561
-0.11,-0.21,10.72,0.04,-0.04,-0.05,1721028204564
-0.11,-0.23,10.54,0.04,-0.05,-0.05,1721028204567
-0.09,-0.29,10.35,0.04,-0.04,-0.04,1721028204570
0.01,-0.23,10.01,0.01,0.04,-0.00,1721028204580
0.03,-0.21,10.04,0.00,0.05,0.00,1721028204583
0.06,-0.23,10.09,-0.01,0.07,0.01,1721028204586
0.09,-0.31,10.16,-0.02,0.09,0.02,1721028204589
0.13,-0.34,10.24,-0.02,0.09,0.02,1721028204592
0.24,-0.23,10.33,0.02,0.03,0.00,1721028204602
0.28,-0.22,10.27,0.02,0.02,-0.00,1721028204605
0.32,-0.22,10.16,0.02,-0.00,-0.01,1721028204608
0.33,-0.27,10.15,0.02,-0.02,-0.02,1721028204611
0.34,-0.30,10.09,0.02,-0.02,-0.03,1721028204614
0.38,-0.32,10.27,0.00,0.03,-0.04,1721028204624
0.38,-0.34,10.35,0.00,0.05,-0.03,1721028204627
0.35,-0.36,10.40,0.00,0.08,-0.03,1721028204630
0.33,-0.36,10.43,0.00,0.11,-0.03,1721028204633
0.30,-0.34,10.43,0.01,0.13,-0.02,1721028204636
0.11,-0.14,10.22,0.02,0.09,-0.04,1721028204646
0.08,-0.15,10.19,0.02,0.08,-0.04,1721028204649
0.04,-0.18,10.14,0.02,0.05,-0.05,1721028204652
0.00,-0.22,10.13,0.01,0.02,-0.06,1721028204655
0.00,-0.26,10.17,0.01,0.00,-0.06,1721028204658
0.04,-0.32,10.42,0.00,0.01,-0.04,1721028204668
0.08,-0.35,10.41,0.01,0.03,-0.03,1721028204671
0.06,-0.38,10.37,0.01,0.06,-0.02,1721028204674
0.07,-0.36,10.30,0.01,0.08,-0.01,1721028204677
0.08,-0.34,10.24,0.01,0.09,-0.01,1721028204680
0.05,-0.28,10.06,0.01,0.08,-0.01,1721028204690
0.07,-0.27,10.24,0.00,0.07,-0.02,1721028204693
0.07,-0.22,10.12,-0.00,0.05,-0.03,1721028204696
0.06,-0.28,10.24,0.00,0.03,-0.04,1721028204699
0.07,-0.35,10.32,0.01,0.02,-0.05,1721028204702
0.04,-0.25,10.37,0.02,0.04,-0.05,1721028204712
0.04,-0.26,10.28,0.02,0.06,-0.04,1721028204715
-0.00,-0.28,10.20,0.02,0.07,-0.04,1721028204718
-0.04,-0.30,10.28,0.02,0.09,-0.03,1721028204721
-0.06,-0.25,10.17,0.01,0.10,-0.03,1721028204724
-0.16,-0.23,10.20,-0.00,0.09,-0.02,1721028204734
-0.17,-0.23,10.22,-0.00,0.07,-0.02,1721028204737
-0.17,-0.25,10.23,0.00,0.06,-0.02,1721028204740
-0.17,-0.28,10.26,0.00,0.04,-0.02,1721028204743
-0.14,-0.26,10.23,0.01,0.03,-0.02,1721028204746
-0.05,-0.25,10.26,0.01,0.02,-0.02,1721028204756
-0.01,-0.27,10.25,0.01,0.02,-0.01,1721028204759
0.01,-0.29,10.23,0.00,0.03,-0.01,1721028204762
0.03,-0.28,10.21,0.00,0.04,-0.01,1721028204765
0.04,-0.26,10.26,0.00,0.06,-0.01,1721028204768
0.05,-0.23,10.32,0.00,0.08,-0.01,1721028204778
0.05,-0.23,10.31,0.01,0.08,-0.02,1721028204781
0.03,-0.23,10.28,0.01,0.07,-0.02,1721028204784
0.01,-0.22,10.25,0.01,0.06,-0.03,1721028204787
0.01,-0.22,10.25,0.02,0.06,-0.04,1721028204790
-0.07,-0.22,10.20,0.01,0.04,-0.05,1721028204800
-0.09,-0.26,10.20,0.01,0.04,-0.05,1721028204803
-0.12,-0.25,10.24,0.01,0.05,-0.05,1721028204806
-0.15,-0.24,10.24,0.01,0.05,-0.04,1721028204809
-0.17,-0.24,10.25,0.01,0.06,-0.04,1721028204812
-0.20,-0.23,10.27,0.01,0.08,-0.02,1721028204822
-0.23,-0.23,10.29,0.01,0.07,-0.02,1721028204825
-0.22,-0.23,10.26,0.01,0.06,-0.02,1721028204828
-0.20,-0.23,10.26,0.01,0.05,-0.02,1721028204831
-0.18,-0.22,10.24,0.01,0.04,-0.03,1721028204834
-0.13,-0.23,10.25,0.01,0.02,-0.03,1721028204844
-0.13,-0.25,10.27,0.01,0.02,-0.04,1721028204847
-0.13,-0.24,10.26,0.01,0.03,-0.04,1721028204850
-0.10,-0.26,10.28,0.01,0.04,-0.03,1721028204853
-0.09,-0.27,10.29,0.01,0.05,-0.03,1721028204856
-0.17,-0.23,10.26,0.01,0.08,-0.03,1721028204866
-0.20,-0.25,10.22,0.01,0.08,-0.03,1721028204869
-0.25,-0.26,10.17,0.01,0.07,-0.03,1721028204872
-0.27,-0.23,10.14,0.01,0.06,-0.04,1721028204875
-0.28,-0.22,10.18,0.00,0.05,-0.04,1721028204878
-0.28,-0.25,10.26,0.00,0.03,-0.03,1721028204888
-0.31,-0.26,10.29,0.00,0.03,-0.03,1721028204891
-0.28,-0.27,10.32,0.00,0.02,-0.03,1721028204894
-0.28,-0.28,10.34,0.00,0.03,-0.02,1721028204897
-0.25,-0.27,10.31,0.00,0.03,-0.02,1721028204900
-0.19,-0.27,10.33,0.00,0.04,-0.00,1721028204910
-0.17,-0.27,10.31,0.00,0.05,-0.01,1721028204913
-0.14,-0.27,10.30,0.00,0.04,-0.01,1721028204916
-0.12,-0.25,10.30,0.00,0.04,-0.01,1721028204919
-0.10,-0.26,10.28,0.00,0.03,-0.01,1721028204922
-0.08,-0.24,10.28,0.01,0.02,-0.02,1721028204932
-0.05,-0.23,10.26,0.01,0.02,-0.02,1721028204935
-0.07,-0.23,10.24,0.01,0.02,-0.02,1721028204938
-0.06,-0.25,10.24,0.01,0.02,-0.02,1721028204941
-0.05,-0.26,10.25,0.01,0.03,-0.02,1721028204944
-0.08,-0.26,10.14,0.01,0.05,-0.02,1721028204954
-0.09,-0.26,10.13,0.00,0.05,-0.02,1721028204957
-0.09,-0.24,10.14,0.00,0.05,-0.02,1721028204960
-0.10,-0.23,10.17,-0.00,0.05,-0.01,1721028204963
-0.10,-0.22,10.20,-0.01,0.05,-0.01,1721028204966
-0.09,-0.24,10.36,0.00,0.03,-0.01,1721028204976
-0.07,-0.24,10.40,0.00,0.03,-0.02,1721028204979
-0.04,-0.22,10.37,0.01,0.03,-0.02,1721028204982
-0.01,-0.21,10.28,0.01,0.02,-0.02,1721028204985
-0.06,-0.15,10.01,0.02,0.02,-0.02,1721028204988
-0.02,-0.06,9.90,-0.04,0.03,-0.02,1721028204998
0.05,0.01,10.35,-0.07,0.04,-0.01,1721028205001
0.07,-0.11,10.83,-0.08,0.06,-0.00,1721028205004
0.06,-0.32,11.00,-0.06,0.08,0.00,1721028205007
0.02,-0.53,10.98,-0.01,0.09,-0.01,1721028205010
0.01,0.12,10.26,0.08,0.05,-0.02,1721028205020
-0.03,0.27,9.94,0.07,0.03,-0.04,1721028205023
-0.06,0.05,9.69,0.04,-0.00,-0.05,1721028205026
-0.03,-0.24,9.54,0.01,-0.03,-0.05,1721028205029
-0.06,-0.35,9.58,-0.01,-0.05,-0.05,1721028205032
0.02,-0.12,10.67,-0.02,0.02,-0.04,1721028205042
0.02,-0.17,10.87,-0.02,0.06,-0.03,1721028205045
-0.01,-0.30,10.93,-0.00,0.10,-0.02,1721028205048
-0.10,-0.35,10.77,0.02,0.13,-0.02,1721028205051
-0.14,-0.34,10.59,0.03,0.14,-0.01,1721028205054
-0.30,0.17,9.76,0.04,0.05,-0.03,1721028205064
-0.30,0.11,9.74,0.01,0.00,-0.04,1721028205067
-0.29,-0.06,9.80,-0.01,-0.04,-0.05,1721028205070
-0.26,-0.23,9.97,-0.03,-0.06,-0.05,1721028205073
-0.23,-0.27,10.11,-0.03,-0.07,-0.05,1721028205076
-0.02,-0.23,10.81,0.01,0.02,-0.02,1721028205086
-0.02,-0.27,10.70,0.02,0.06,-0.01,1721028205089
-0.05,-0.27,10.48,0.03,0.10,-0.00,1721028205092
-0.08,-0.24,10.18,0.04,0.11,-0.00,1721028205095
-0.11,-0.21,10.03,0.04,0.12,-0.00,1721028205098
-0.13,-0.01,9.94,-0.01,0.03,-0.03,1721028205108
-0.13,-0.11,10.09,-0.02,-0.00,-0.04,1721028205111
-0.11,-0.21,10.22,-0.02,-0.02,-0.05,1721028205114
-0.10,-0.26,10.35,-0.01,-0.03,-0.05,1721028205117
-0.07,-0.30,10.52,0.00,-0.03,-0.05,1721028205120
-0.09,-0.18,10.39,0.04,0.05,-0.03,1721028205130
-0.11,-0.21,10.19,0.04,0.07,-0.03,1721028205133
-0.16,-0.22,10.04,0.03,0.08,-0.02,1721028205136
-0.20,-0.20,9.96,0.02,0.08,-0.02,1721028205139
-0.22,-0.15,9.93,0.01,0.08,-0.01,1721028205142
-0.14,-0.11,10.30,-0.02,0.02,-0.02,1721028205152
-0.12,-0.19,10.44,-0.01,0.01,-0.02,1721028205155
-0.09,-0.23,10.54,0.00,-0.00,-0.03,1721028205158
-0.09,-0.23,10.57,0.01,-0.01,-0.03,1721028205161
-0.06,-0.23,10.51,0.03,-0.01,-0.03,1721028205164
0.00,-0.15,10.08,0.03,0.02,-0.02,1721028205174
0.01,-0.16,10.00,0.02,0.03,-0.02,1721028205177
0.04,-0.18,9.98,0.01,0.03,-0.02,1721028205180
0.04,-0.19,10.04,0.00,0.04,-0.02,1721028205183
0.03,-0.14,10.15,-0.00,0.05,-0.02,1721028205186
0.02,-0.23,10.49,0.00,0.06,-0.03,1721028205196
-0.03,-0.22,10.47,0.02,0.05,-0.03,1721028205199
-0.05,-0.20,10.42,0.02,0.05,-0.03,1721028205202
-0.06,-0.18,10.30,0.03,0.04,-0.04,1721028205205
-0.07,-0.13,10.17,0.03,0.03,-0.04,1721028205208
-0.10,-0.19,10.12,0.01,0.01,-0.04,1721028205218
-0.10,-0.20,10.14,0.00,0.01,-0.04,1721028205221
-0.11,-0.21,10.19,-0.00,0.02,-0.03,1721028205224
-0.10,-0.23,10.32,-0.00,0.03,-0.03,1721028205227
-0.10,-0.23,10.39,-0.00,0.04,-0.03,1721028205230
-0.10,-0.19,10.39,0.02,0.06,-0.02,1721028205240
-0.09,-0.17,10.30,0.02,0.05,-0.02,1721028205243
-0.08,-0.16,10.21,0.03,0.05,-0.02,1721028205246
-0.10,-0.15,10.15,0.02,0.03,-0.03,1721028205249
-0.07,-0.15,10.12,0.02,0.02,-0.03,1721028205252
-0.05,-0.22,10.27,0.00,0.00,-0.04,1721028205262
-0.06,-0.23,10.33,0.00,0.01,-0.04,1721028205265
-0.00,-0.25,10.37,0.01,0.02,-0.03,1721028205268
-0.02,-0.24,10.41,0.01,0.04,-0.03,1721028205271
-0.04,-0.24,10.41,0.02,0.05,-0.03,1721028205274
-0.10,-0.19,10.12,0.02,0.07,-0.03,1721028205284
-0.11,-0.19,10.10,0.02,0.06,-0.03,1721028205287
-0.12,-0.17,10.08,0.01,0.05,-0.03,1721028205290
-0.16,-0.19,10.08,0.01,0.04,-0.03,1721028205293
-0.20,-0.18,10.14,0.00,0.02,-0.03,1721028205296
-0.15,-0.27,10.38,0.01,0.01,-0.03,1721028205306
-0.15,-0.27,10.39,0.01,0.01,-0.03,1721028205309
-0.13,-0.28,10.40,0.02,0.02,-0.03,1721028205312
-0.15,-0.24,10.36,0.02,0.03,-0.03,1721028205315
-0.14,-0.26,10.30,0.02,0.04,-0.02,1721028205318
-0.13,-0.23,10.17,0.01,0.05,-0.02,1721028205328
-0.14,-0.21,10.18,0.01,0.04,-0.02,1721028205331
-0.16,-0.23,10.24,0.00,0.04,-0.03,1721028205334
-0.16,-0.22,10.30,0.00,0.03,-0.03,1721028205337
-0.16,-0.22,10.35,0.01,0.03,-0.03,1721028205340
-0.13,-0.23,10.30,0.02,0.02,-0.04,1721028205350
-0.15,-0.23,10.24,0.02,0.03,-0.04,1721028205353
-0.19,-0.24,10.17,0.02,0.03,-0.04,1721028205356
-0.20,-0.24,10.13,0.02,0.04,-0.03,1721028205359
-0.22,-0.23,10.14,0.01,0.04,-0.03,1721028205362
-0.24,-0.28,10.21,0.00,0.04,-0.03,1721028205372
-0.23,-0.26,10.26,0.00,0.04,-0.03,1721028205375
-0.25,-0.22,10.30,0.01,0.04,-0.02,1721028205378
-0.27,-0.23,10.31,0.01,0.03,-0.02,1721028205381
-0.25,-0.27,10.35,0.01,0.03,-0.02,1721028205384
-0.24,-0.26,10.26,0.02,0.02,-0.03,1721028205394
-0.26,-0.25,10.18,0.02,0.01,-0.03,1721028205397
-0.24,-0.25,10.17,0.01,0.01,-0.03,1721028205400
-0.20,-0.26,10.18,0.01,0.01,-0.03,1721028205403
-0.19,-0.26,10.22,0.01,0.02,-0.03,1721028205406
-0.19,-0.29,10.32,0.01,0.03,-0.02,1721028205416
-0.21,-0.27,10.37,0.01,0.04,-0.02,1721028205419
-0.18,-0.27,10.34,0.01,0.04,-0.02,1721028205422
-0.21,-0.27,10.29,0.02,0.03,-0.02,1721028205425
-0.23,-0.27,10.24,0.02,0.03,-0.02,1721028205428
-0.23,-0.26,10.18,0.01,0.01,-0.02,1721028205438
-0.22,-0.29,10.20,0.01,0.01,-0.02,1721028205441
-0.18,-0.31,10.23,0.01,0.00,-0.02,1721028205444
-0.16,-0.32,10.30,0.01,0.01,-0.02,1721028205447
-0.15,-0.31,10.30,0.01,0.01,-0.02,1721028205450
-0.08,-0.34,10.29,0.02,0.02,-0.01,1721028205460
-0.06,-0.33,10.25,0.02,0.02,-0.00,1721028205463
-0.06,-0.32,10.20,0.02,0.02,-0.00,1721028205466
-0.02,-0.30,10.17,0.02,0.02,-0.00,1721028205469
0.01,-0.30,10.12,0.02,0.01,-0.01,1721028205472
0.04,-0.31,10.24,0.01,0.01,-0.02,1721028205482
0.06,-0.33,10.30,0.01,0.01,-0.02,1721028205485
0.09,-0.33,10.30,0.01,0.01,-0.03,1721028205488
0.10,-0.33,10.33,0.01,0.02,-0.03,1721028205491
0.05,-0.36,10.42,0.01,0.04,-0.02,1721028205498
0.01,-0.36,10.36,0.02,0.04,-0.03,1721028205501
0.00,-0.35,10.31,0.02,0.05,-0.03,1721028205504
-0.04,-0.36,10.25,0.02,0.05,-0.04,1721028205507
-0.12,-0.40,10.12,0.02,0.03,-0.03,1721028205516
-0.14,-0.40,10.09,0.02,0.02,-0.03,1721028205519
-0.15,-0.44,10.13,0.01,0.01,-0.03,1721028205522
-0.14,-0.46,10.11,0.01,0.01,-0.03,1721028205525
-0.12,-0.47,10.11,0.01,0.01,-0.03,1721028205528
-0.06,-0.48,10.21,0.01,0.02,-0.02,1721028205538
-0.04,-0.51,10.27,0.01,0.03,-0.02,1721028205541
-0.04,-0.51,10.31,0.01,0.03,-0.02,1721028205544
-0.04,-0.50,10.37,0.01,0.03,-0.02,1721028205547
-0.02,-0.49,10.43,0.00,0.04,-0.02,1721028205550
-0.01,-0.54,10.63,0.01,0.04,-0.03,1721028205560
-0.05,-0.44,10.59,0.02,0.03,-0.03,1721028205563
-0.08,-0.39,10.48,0.04,0.03,-0.03,1721028205566
-0.12,-0.33,10.34,0.04,0.02,-0.04,1721028205569
-0.13,-0.30,10.16,0.03,0.01,-0.04,1721028205572
-0.20,-0.26,9.96,0.01,-0.00,-0.03,1721028205582
-0.15,-0.26,10.02,0.00,0.00,-0.03,1721028205585
-0.13,-0.24,10.08,-0.00,0.01,-0.03,1721028205588
-0.12,-0.26,10.10,-0.01,0.02,-0.03,1721028205591
-0.15,-0.32,10.17,-0.00,0.04,-0.02,1721028205594
-0.18,-0.31,10.18,0.01,0.05,-0.02,1721028205604
-0.18,-0.31,10.14,0.02,0.05,-0.02,1721028205607
-0.17,-0.32,10.13,0.02,0.04,-0.02,1721028205610
-0.17,-0.30,10.11,0.01,0.03,-0.02,1721028205613
-0.19,-0.29,10.13,0.01,0.01,-0.02,1721028205616
-0.20,-0.38,10.43,0.01,-0.00,-0.04,1721028205626
-0.21,-0.39,10.51,0.01,0.01,-0.04,1721028205629
-0.24,-0.37,10.57,0.02,0.02,-0.04,1721028205632
-0.27,-0.35,10.54,0.03,0.03,-0.03,1721028205635
-0.29,-0.34,10.46,0.03,0.04,-0.03,1721028205638
-0.40,-0.28,10.05,0.03,0.04,-0.02,1721028205648
-0.39,-0.23,9.95,0.03,0.03,-0.02,1721028205651
-0.36,-0.23,9.94,0.02,0.01,-0.02,1721028205654
-0.35,-0.24,9.96,0.01,-0.00,-0.02,1721028205657
-0.33,-0.30,10.05,-0.00,-0.01,-0.02,1721028205660
-0.22,-0.45,10.35,-0.00,-0.01,-0.02,1721028205670
-0.21,-0.47,10.41,0.00,0.00,-0.02,1721028205673
-0.18,-0.47,10.44,0.01,0.01,-0.01,1721028205676
-0.16,-0.48,10.42,0.01,0.02,-0.01,1721028205679
-0.15,-0.48,10.36,0.02,0.03,-0.01,1721028205682
-0.17,-0.42,10.22,0.01,0.02,-0.02,1721028205692
-0.16,-0.44,10.23,0.01,0.01,-0.02,1721028205695
-0.17,-0.44,10.26,0.01,-0.01,-0.02,1721028205698
-0.17,-0.44,10.29,0.01,-0.01,-0.03,1721028205701
-0.16,-0.41,10.34,0.01,-0.02,-0.03,1721028205704
-0.15,-0.38,10.29,0.03,-0.00,-0.03,1721028205714
-0.15,-0.32,10.23,0.03,0.01,-0.02,1721028205717
-0.14,-0.28,10.11,0.03,0.01,-0.02,1721028205720
-0.13,-0.31,10.06,0.02,0.02,-0.02,1721028205723
-0.14,-0.31,10.01,0.02,0.02,-0.02,1721028205726
-0.14,-0.27,10.22,-0.00,0.01,-0.02,1721028205736
-0.11,-0.31,10.26,-0.00,0.01,-0.02,1721028205739
-0.08,-0.34,10.34,0.00,0.01,-0.02,1721028205742
-0.09,-0.35,10.39,0.00,0.00,-0.03,1721028205745
-0.12,-0.34,10.42,0.01,0.00,-0.02,1721028205748
-0.11,-0.41,10.31,0.02,-0.00,-0.02,1721028205758
-0.12,-0.41,10.27,0.02,-0.00,-0.02,1721028205761
-0.11,-0.42,10.24,0.02,-0.00,-0.02,1721028205764
-0.13,-0.41,10.25,0.01,-0.00,-0.02,1721028205767
-0.12,-0.41,10.29,0.01,-0.00,-0.02,1721028205770
-0.11,-0.43,10.32,0.02,0.00,-0.02,1721028205780
-0.07,-0.41,10.31,0.02,0.00,-0.02,1721028205783
-0.09,-0.38,10.27,0.02,0.00,-0.02,1721028205786
-0.09,-0.36,10.22,0.02,0.00,-0.02,1721028205789
-0.08,-0.34,10.21,0.03,0.00,-0.02,1721028205792
-0.10,-0.34,10.10,0.02,-0.00,-0.03,1721028205802
-0.08,-0.32,10.11,0.01,-0.00,-0.03,1721028205805
-0.09,-0.35,10.14,0.01,-0.00,-0.03,1721028205808
-0.07,-0.36,10.14,0.01,0.00,-0.03,1721028205811
-0.06,-0.38,10.24,0.01,0.00,-0.03,1721028205814
-0.11,-0.40,10.32,0.01,0.01,-0.02,1721028205824
-0.11,-0.40,10.30,0.02,0.01,-0.02,1721028205827
-0.11,-0.40,10.27,0.02,0.01,-0.02,1721028205830
-0.10,-0.38,10.26,0.02,0.01,-0.02,1721028205833
-0.12,-0.38,10.27,0.02,-0.00,-0.02,1721028205836
-0.11,-0.37,10.24,0.01,-0.01,-0.02,1721028205839
-0.02,-0.38,10.32,0.01,-0.02,-0.02,1721028205849
0.01,-0.38,10.32,0.01,-0.02,-0.02,1721028205852
0.02,-0.38,10.35,0.01,-0.01,-0.02,1721028205855
0.04,-0.34,10.35,0.02,-0.01,-0.02,1721028205858
0.05,-0.33,10.33,0.02,-0.00,-0.02,1721028205861
0.11,-0.27,10.19,0.02,0.01,-0.02,1721028205871
0.12,-0.28,10.16,0.02,0.01,-0.02,1721028205874
0.10,-0.28,10.17,0.01,0.01,-0.02,1721028205877
0.11,-0.26,10.18,0.01,0.01,-0.03,1721028205880
0.11,-0.28,10.18,0.01,0.01,-0.03,1721028205883
0.04,-0.30,10.31,0.01,0.01,-0.03,1721028205893
0.04,-0.32,10.31,0.01,0.01,-0.03,1721028205896
0.04,-0.33,10.32,0.02,0.01,-0.03,1721028205899
0.03,-0.33,10.33,0.02,0.01,-0.03,1721028205902
0.02,-0.33,10.30,0.02,0.01,-0.02,1721028205905
0.05,-0.29,10.26,0.01,0.01,-0.02,1721028205915
0.07,-0.29,10.30,0.01,0.01,-0.02,1721028205918
0.10,-0.30,10.30,0.01,0.00,-0.02,1721028205921
0.11,-0.31,10.29,0.01,0.00,-0.02,1721028205924
0.14,-0.31,10.28,0.01,0.00,-0.02,1721028205927
0.16,-0.25,10.25,0.02,0.01,-0.02,1721028205937
0.16,-0.25,10.25,0.02,0.01,-0.03,1721028205940
0.18,-0.25,10.23,0.02,0.01,-0.03,1721028205943
0.16,-0.24,10.19,0.02,0.02,-0.03,1721028205946
0.15,-0.25,10.21,0.01,0.02,-0.03,1721028205949
0.13,-0.24,10.26,0.01,0.03,-0.03,1721028205959
0.09,-0.26,10.24,0.01,0.03,-0.03,1721028205962
0.08,-0.25,10.25,0.01,0.03,-0.03,1721028205965
0.08,-0.27,10.28,0.01,0.03,-0.03,1721028205968
0.05,-0.29,10.24,0.01,0.03,-0.03,1721028205971
0.07,-0.28,10.25,0.01,0.02,-0.02,1721028205981
0.07,-0.28,10.23,0.01,0.01,-0.02,1721028205984
0.09,-0.29,10.23,0.01,0.01,-0.02,1721028205987
0.10,-0.28,10.21,0.01,0.01,-0.02,1721028205990
0.11,-0.26,10.22,0.01,0.01,-0.02,1721028205993
0.17,-0.28,10.29,0.01,0.02,-0.02,1721028206003
0.18,-0.29,10.28,0.01,0.03,-0.02,1721028206006
0.17,-0.27,10.27,0.01,0.03,-0.02,1721028206009
0.19,-0.26,10.27,0.02,0.03,-0.03,1721028206012
0.20,-0.25,10.21,0.02,0.03,-0.03,1721028206015
0.15,-0.23,10.23,0.01,0.04,-0.03,1721028206025
0.11,-0.27,10.26,0.01,0.04,-0.04,1721028206028
0.10,-0.26,10.30,0.01,0.04,-0.04,1721028206031
0.08,-0.26,10.32,0.01,0.04,-0.04,1721028206034
0.07,-0.29,10.29,0.01,0.04,-0.04,1721028206037
-0.01,-0.31,10.22,0.01,0.04,-0.03,1721028206047
0.00,-0.32,10.26,0.01,0.04,-0.03,1721028206050
0.02,-0.32,10.26,0.01,0.04,-0.03,1721028206053
0.01,-0.30,10.25,0.01,0.04,-0.03,1721028206056
0.00,-0.29,10.25,0.01,0.03,-0.02,1721028206059
0.06,-0.28,10.24,0.01,0.03,-0.02,1721028206069
0.06,-0.29,10.27,0.01,0.03,-0.02,1721028206072
0.05,-0.29,10.24,0.01,0.03,-0.02,1721028206075
0.10,-0.30,10.27,0.01,0.03,-0.02,1721028206078
0.11,-0.30,10.29,0.01,0.04,-0.03,1721028206081
0.09,-0.26,10.23,0.01,0.05,-0.03,1721028206091
0.06,-0.26,10.24,0.01,0.05,-0.04,1721028206094
0.00,-0.27,10.23,0.01,0.05,-0.04,1721028206097
-0.00,-0.28,10.25,0.01,0.05,-0.04,1721028206100
-0.04,-0.30,10.24,0.01,0.05,-0.04,1721028206103
-0.10,-0.28,10.30,0.01,0.05,-0.04,1721028206113
-0.13,-0.28,10.28,0.01,0.05,-0.04,1721028206116
-0.15,-0.29,10.24,0.01,0.05,-0.04,1721028206119
-0.16,-0.30,10.22,0.01,0.05,-0.03,1721028206122
-0.17,-0.29,10.22,0.01,0.04,-0.03,1721028206125
-0.16,-0.33,10.24,0.01,0.04,-0.03,1721028206135
-0.14,-0.32,10.26,0.01,0.04,-0.02,1721028206138
-0.10,-0.32,10.27,0.01,0.04,-0.02,1721028206141
-0.16,-0.29,10.26,0.01,0.02,-0.02,1721028206775
-0.15,-0.31,10.31,0.01,0.02,-0.02,1721028206778
-0.17,-0.31,10.30,0.01,0.02,-0.02,1721028206781
-0.15,-0.31,10.34,0.01,0.02,-0.02,1721028206784
-0.16,-0.32,10.28,0.01,0.02,-0.02,1721028206787
-0.18,-0.33,10.27,0.01,0.02,-0.02,1721028206790
-0.15,-0.31,10.25,0.01,0.02,-0.02,1721028206793
-0.12,-0.28,10.25,0.01,0.02,-0.02,1721028206802
-0.12,-0.29,10.22,0.01,0.02,-0.02,1721028206805
-0.13,-0.31,10.24,0.01,0.02,-0.02,1721028206808
-0.10,-0.30,10.26,0.01,0.02,-0.02,1721028206811
-0.11,-0.29,10.29,0.01,0.02,-0.02,1721028206814
-0.08,-0.30,10.25,0.01,0.02,-0.02,1721028206824
-0.08,-0.31,10.24,0.01,0.02,-0.02,1721028206827
-0.08,-0.31,10.25,0.01,0.02,-0.02,1721028206830
-0.11,-0.30,10.27,0.01,0.02,-0.02,1721028206833
-0.11,-0.29,10.24,0.01,0.02,-0.02,1721028206836
-0.11,-0.30,10.22,0.01,0.02,-0.02,1721028206839
-0.10,-0.28,10.26,0.01,0.02,-0.02,1721028206849
-0.10,-0.28,10.28,0.01,0.01,-0.03,1721028206852
-0.10,-0.27,10.27,0.01,0.02,-0.03,1721028206855
-0.10,-0.28,10.27,0.01,0.02,-0.03,1721028206858
-0.10,-0.29,10.26,0.01,0.02,-0.03,1721028206861
-0.11,-0.30,10.26,0.01,0.02,-0.02,1721028206871
-0.11,-0.31,10.27,0.01,0.02,-0.02,1721028206874
-0.11,-0.30,10.27,0.01,0.02,-0.02,1721028206877
-0.10,-0.31,10.27,0.01,0.02,-0.03,1721028206880
-0.11,-0.31,10.28,0.01,0.02,-0.03,1721028206883
-0.11,-0.29,10.30,0.02,0.02,-0.03,1721028206893
-0.10,-0.30,10.28,0.02,0.02,-0.03,1721028206896
-0.09,-0.30,10.31,0.02,0.02,-0.03,1721028206899
-0.09,-0.30,10.27,0.01,0.01,-0.03,1721028206902
-0.10,-0.28,10.25,0.01,0.02,-0.03,1721028206905
-0.10,-0.28,10.25,0.01,0.02,-0.03,1721028206915
-0.08,-0.29,10.26,0.01,0.02,-0.03,1721028206918
-0.08,-0.30,10.26,0.01,0.02,-0.03,1721028206921
-0.09,-0.31,10.24,0.01,0.02,-0.03,1721028206924
-0.07,-0.31,10.22,0.01,0.02,-0.03,1721028206927
-0.13,-0.29,10.21,0.01,0.02,-0.03,1721028206937
-0.12,-0.29,10.20,0.01,0.02,-0.03,1721028206940
-0.14,-0.28,10.23,0.01,0.02,-0.03,1721028206943
-0.13,-0.29,10.24,0.01,0.01,-0.03,1721028206946
-0.14,-0.30,10.25,0.01,0.01,-0.03,1721028206949
-0.12,-0.30,10.27,0.01,0.02,-0.03,1721028206959
-0.10,-0.32,10.27,0.01,0.02,-0.02,1721028206962
-0.11,-0.32,10.23,0.01,0.02,-0.02,1721028206965
-0.11,-0.32,10.22,0.01,0.02,-0.02,1721028206968
-0.10,-0.32,10.27,0.02,0.02,-0.02,1721028206971
-0.09,-0.32,10.24,0.01,0.01,-0.03,1721028206981
-0.08,-0.30,10.26,0.01,0.01,-0.03,1721028206984
-0.11,-0.30,10.27,0.01,0.01,-0.03,1721028206987
-0.08,-0.30,10.28,0.01,0.02,-0.03,1721028206990
-0.07,-0.33,10.27,0.01,0.01,-0.03,1721028206993
-0.10,-0.30,10.23,0.01,0.02,-0.03,1721028207003
-0.10,-0.30,10.24,0.01,0.02,-0.03,1721028207006
-0.09,-0.28,10.24,0.01,0.02,-0.03,1721028207009
-0.11,-0.29,10.24,0.01,0.02,-0.03,1721028207012
-0.11,-0.30,10.24,0.01,0.02,-0.03,1721028207015
-0.11,-0.28,10.23,0.01,0.01,-0.03,1721028207025
-0.10,-0.28,10.24,0.01,0.01,-0.03,1721028207028
-0.11,-0.26,10.22,0.01,0.01,-0.03,1721028207031
-0.12,-0.29,10.23,0.01,0.01,-0.03,1721028207034
-0.11,-0.29,10.25,0.01,0.01,-0.03,1721028207037
-0.11,-0.29,10.26,0.01,0.02,-0.02,1721028207047
-0.10,-0.29,10.25,0.01,0.02,-0.02,1721028207050
-0.10,-0.28,10.23,0.01,0.02,-0.02,1721028207053
-0.11,-0.27,10.25,0.01,0.01,-0.03,1721028207056
-0.08,-0.25,10.24,0.01,0.01,-0.03,1721028207059
-0.10,-0.26,10.26,0.01,0.01,-0.03,1721028207069
-0.12,-0.27,10.26,0.01,0.01,-0.03,1721028207072
-0.11,-0.29,10.28,0.01,0.01,-0.03,1721028207075
-0.12,-0.28,10.26,0.01,0.01,-0.03,1721028207078
-0.12,-0.29,10.21,0.01,0.01,-0.03,1721028207081
-0.12,-0.27,10.21,0.01,0.01,-0.02,1721028207091
-0.13,-0.27,10.25,0.01,0.01,-0.02,1721028207094
-0.12,-0.27,10.23,0.01,0.01,-0.02,1721028207097
-0.10,-0.27,10.25,0.01,0.01,-0.02,1721028207100
-0.11,-0.26,10.23,0.01,0.01,-0.02,1721028207103
-0.08,-0.28,10.31,0.01,0.01,-0.02,1721028207113
-0.10,-0.28,10.32,0.01,0.01,-0.02,1721028207116
-0.11,-0.26,10.29,0.01,0.01,-0.02,1721028207119
-0.09,-0.29,10.30,0.01,0.01,-0.02,1721028207122
-0.09,-0.28,10.28,0.01,0.01,-0.02,1721028207125
-0.08,-0.29,10.27,0.02,0.01,-0.02,1721028207135
-0.08,-0.29,10.26,0.01,0.01,-0.02,1721028207138
-0.05,-0.27,10.22,0.02,0.01,-0.02,1721028207141
-0.05,-0.27,10.22,0.01,0.01,-0.03,1721028207144
-0.08,-0.27,10.24,0.01,0.01,-0.03,1721028207147
-0.05,-0.30,10.27,0.01,0.01,-0.03,1721028207157
-0.07,-0.30,10.21,0.01,0.01,-0.03,1721028207160
-0.07,-0.28,10.25,0.01,0.01,-0.03,1721028207163
-0.08,-0.25,10.24,0.01,0.01,-0.03,1721028207166
-0.10,-0.27,10.25,0.01,0.01,-0.03,1721028207169
-0.09,-0.27,10.29,0.01,0.01,-0.02,1721028207179
-0.07,-0.27,10.28,0.01,0.01,-0.02,1721028207182
-0.09,-0.27,10.27,0.01,0.01,-0.02,1721028207185
-0.08,-0.25,10.24,0.01,0.01,-0.02,1721028207188
-0.09,-0.27,10.24,0.01,0.01,-0.03,1721028207191
-0.08,-0.24,10.20,0.01,0.01,-0.03,1721028207201
-0.10,-0.25,10.23,0.01,0.01,-0.03,1721028207204
-0.08,-0.25,10.25,0.01,0.01,-0.03,1721028207207
-0.08,-0.24,10.24,0.01,0.01,-0.03,1721028207210
-0.09,-0.24,10.21,0.01,0.01,-0.03,1721028207213
-0.10,-0.30,10.27,0.01,0.01,-0.03,1721028207223
-0.08,-0.28,10.27,0.01,0.01,-0.03,1721028207226
-0.08,-0.28,10.30,0.01,0.01,-0.02,1721028207229
-0.07,-0.26,10.30,0.01,0.01,-0.02,1721028207232
-0.07,-0.29,10.27,0.01,0.01,-0.03,1721028207235
-0.08,-0.30,10.28,0.01,0.00,-0.03,1721028207245
-0.10,-0.29,10.28,0.01,0.00,-0.02,1721028207248
-0.10,-0.26,10.27,0.01,0.01,-0.03,1721028207251
-0.12,-0.27,10.28,0.01,0.01,-0.03,1721028207254
-0.11,-0.27,10.27,0.02,0.01,-0.02,1721028207257
-0.09,-0.26,10.24,0.01,0.01,-0.02,1721028207267
-0.07,-0.26,10.24,0.01,0.01,-0.02,1721028207270
-0.06,-0.27,10.24,0.01,0.01,-0.02,1721028207273
-0.05,-0.29,10.24,0.01,0.01,-0.02,1721028207276
-0.05,-0.29,10.24,0.01,0.01,-0.02,1721028207279
-0.05,-0.28,10.27,0.01,0.01,-0.03,1721028207289
-0.03,-0.26,10.28,0.01,0.01,-0.02,1721028207292
-0.04,-0.27,10.28,0.01,0.01,-0.02,1721028207295
-0.04,-0.26,10.30,0.01,0.01,-0.02,1721028207298
-0.06,-0.25,10.22,0.01,0.01,-0.02,1721028207301
-0.03,-0.28,10.24,0.01,0.01,-0.02,1721028207311
-0.04,-0.28,10.25,0.01,0.01,-0.02,1721028207314
-0.02,-0.26,10.27,0.01,0.01,-0.03,1721028207317
-0.02,-0.26,10.28,0.01,0.01,-0.03,1721028207320
-0.03,-0.27,10.29,0.01,0.00,-0.03,1721028207323
-0.05,-0.29,10.29,0.01,0.01,-0.02,1721028207333
-0.00,-0.29,10.29,0.01,0.01,-0.02,1721028207336
-0.02,-0.30,10.26,0.02,0.01,-0.02,1721028207339
-0.02,-0.29,10.26,0.02,0.01,-0.02,1721028207342
-0.03,-0.28,10.25,0.02,0.00,-0.02,1721028207345
-0.01,-0.26,10.22,0.02,0.01,-0.02,1721028207355
0.00,-0.26,10.20,0.01,0.01,-0.02,1721028207358
0.00,-0.26,10.24,0.02,0.01,-0.02,1721028207361
0.00,-0.27,10.20,0.01,0.01,-0.02,1721028207364
-0.01,-0.27,10.21,0.01,0.01,-0.03,1721028207367
0.00,-0.27,10.27,0.01,0.01,-0.03,1721028207377
0.02,-0.26,10.29,0.01,0.01,-0.03,1721028207380
0.01,-0.28,10.30,0.01,0.01,-0.03,1721028207383
0.02,-0.28,10.27,0.01,0.01,-0.03,1721028207386
0.01,-0.29,10.27,0.01,0.01,-0.03,1721028207389
0.01,-0.28,10.30,0.01,0.01,-0.02,1721028207399
0.00,-0.30,10.26,0.01,0.01,-0.02,1721028207402
-0.01,-0.31,10.28,0.01,0.01,-0.02,1721028207405
0.00,-0.29,10.31,0.01,0.01,-0.02,1721028207408
0.04,-0.28,10.30,0.01,0.01,-0.02,1721028207411
0.02,-0.27,10.29,0.02,0.01,-0.02,1721028207421
0.04,-0.26,10.26,0.02,0.01,-0.03,1721028207424
0.02,-0.26,10.24,0.02,0.01,-0.02,1721028207427
0.04,-0.27,10.25,0.02,0.01,-0.02,1721028207430
0.05,-0.29,10.24,0.01,0.01,-0.03,1721028207433
0.06,-0.27,10.25,0.01,0.01,-0.02,1721028207443
0.05,-0.28,10.27,0.01,0.01,-0.02,1721028207446
0.03,-0.26,10.28,0.01,0.01,-0.03,1721028207449
0.02,-0.26,10.28,0.01,0.01,-0.03,1721028207452
0.06,-0.27,10.24,0.01,0.01,-0.03,1721028207455
0.08,-0.28,10.27,0.01,0.02,-0.03,1721028207465
0.08,-0.26,10.29,0.01,0.02,-0.03,1721028207468
0.07,-0.27,10.28,0.01,0.01,-0.03,1721028207471
0.05,-0.29,10.27,0.01,0.01,-0.03,1721028207474
0.06,-0.30,10.27,0.01,0.01,-0.03,1721028207477
0.08,-0.30,10.23,0.01,0.02,-0.03,1721028207487
0.04,-0.28,10.26,0.01,0.01,-0.03,1721028207490
0.04,-0.29,10.28,0.01,0.01,-0.03,1721028207493
0.02,-0.27,10.25,0.01,0.02,-0.03,1721028207500
0.02,-0.27,10.25,0.01,0.02,-0.03,1721028207503
0.03,-0.28,10.25,0.01,0.02,-0.03,1721028207506
0.05,-0.28,10.27,0.01,0.02,-0.03,1721028207509
0.03,-0.29,10.23,0.01,0.02,-0.03,1721028207512
0.02,-0.26,10.28,0.01,0.02,-0.03,1721028207522
0.06,-0.29,10.29,0.01,0.02,-0.03,1721028207525
0.04,-0.26,10.29,0.01,0.02,-0.03,1721028207528
0.03,-0.27,10.29,0.01,0.02,-0.03,1721028207531
0.00,-0.27,10.28,0.01,0.02,-0.03,1721028207534
-0.03,-0.25,10.28,0.01,0.02,-0.03,1721028207544
-0.00,-0.25,10.27,0.01,0.02,-0.03,1721028207547
-0.01,-0.28,10.29,0.01,0.02,-0.03,1721028207550
